Time,header.seq,header.stamp.secs,header.stamp.nsecs,header.frame_id,orientation.x,orientation.y,orientation.z,orientation.w,orientation_covariance_0,orientation_covariance_1,orientation_covariance_2,orientation_covariance_3,orientation_covariance_4,orientation_covariance_5,orientation_covariance_6,orientation_covariance_7,orientation_covariance_8,angular_velocity.x,angular_velocity.y,angular_velocity.z,angular_velocity_covariance_0,angular_velocity_covariance_1,angular_velocity_covariance_2,angular_velocity_covariance_3,angular_velocity_covariance_4,angular_velocity_covariance_5,angular_velocity_covariance_6,angular_velocity_covariance_7,angular_velocity_covariance_8,linear_acceleration.x,linear_acceleration.y,linear_acceleration.z,linear_acceleration_covariance_0,linear_acceleration_covariance_1,linear_acceleration_covariance_2,linear_acceleration_covariance_3,linear_acceleration_covariance_4,linear_acceleration_covariance_5,linear_acceleration_covariance_6,linear_acceleration_covariance_7,linear_acceleration_covariance_8
1532135125.3311505,4512,1532135125,330824304,base_link,-0.05522634831520681,0.12238540976836614,-0.289584494120108,-0.9476880724651955,1.0,0.0,0.0,0.0,1.0,0.0,0.0,0.0,1.0,1.4905272722244263,-0.4660579860210418,0.3055983185768128,1.2184696791468346e-07,0.0,0.0,0.0,1.2184696791468346e-07,0.0,0.0,0.0,1.2184696791468346e-07,-0.392266,0.8531785500000026,22.09438245,8.999999999999999e-08,0.0,0.0,0.0,8.999999999999999e-08,0.0,0.0,0.0,8.999999999999999e-08
1532135125.6905751,4513,1532135125,690325296,base_link,0.0044816216382003405,0.1974261405422121,-0.2866963200380691,-0.9374476274303156,1.0,0.0,0.0,0.0,1.0,0.0,0.0,0.0,1.0,-0.6988581418991089,-0.07315935194492343,-0.22551672160625458,1.2184696791468346e-07,0.0,0.0,0.0,1.2184696791468346e-07,0.0,0.0,0.0,1.2184696791468346e-07,-1.24544455,0.8727918500000018,15.023787800000001,8.999999999999999e-08,0.0,0.0,0.0,8.999999999999999e-08,0.0,0.0,0.0,8.999999999999999e-08
1532135126.0355086,4514,1532135126,35275472,base_link,0.0411936340457122,0.21756505711293203,-0.24990583066238387,-0.9426110577743605,1.0,0.0,0.0,0.0,1.0,0.0,0.0,0.0,1.0,-0.18366986513137817,-0.0036514378152787768,-0.0689818263053894,1.2184696791468346e-07,0.0,0.0,0.0,1.2184696791468346e-07,0.0,0.0,0.0,1.2184696791468346e-07,-1.24544455,1.1361159676084036e-15,9.2770909,8.999999999999999e-08,0.0,0.0,0.0,8.999999999999999e-08,0.0,0.0,0.0,8.999999999999999e-08
1532135126.3708577,4515,1532135126,370568016,base_link,0.0703175802398908,0.21115804069371422,-0.2640143332544109,-0.938490357753252,1.0,0.0,0.0,0.0,1.0,0.0,0.0,0.0,1.0,-0.24275387823581696,0.13601529598236087,0.24957308173179624,1.2184696791468346e-07,0.0,0.0,0.0,1.2184696791468346e-07,0.0,0.0,0.0,1.2184696791468346e-07,-1.2160246,-0.7649186999999991,7.9237732,8.999999999999999e-08,0.0,0.0,0.0,8.999999999999999e-08,0.0,0.0,0.0,8.999999999999999e-08
1532135126.7509248,4516,1532135126,750193680,base_link,0.12614126975913215,0.18815396158391673,-0.2980095188537821,-0.9272954186646073,1.0,0.0,0.0,0.0,1.0,0.0,0.0,0.0,1.0,-0.07870455831289291,0.23213125765323642,0.24552680552005765,1.2184696791468346e-07,0.0,0.0,0.0,1.2184696791468346e-07,0.0,0.0,0.0,1.2184696791468346e-07,-1.0002783,-0.16671304999999928,5.87418335,8.999999999999999e-08,0.0,0.0,0.0,8.999999999999999e-08,0.0,0.0,0.0,8.999999999999999e-08
1532135127.187528,4517,1532135127,187166608,base_link,0.19828979075429568,0.13310478860693614,-0.33095564509606273,-0.912925317379012,1.0,0.0,0.0,0.0,1.0,0.0,0.0,0.0,1.0,-0.27794918417930603,0.3187817633152008,0.21619580686092374,1.2184696791468346e-07,0.0,0.0,0.0,1.2184696791468346e-07,0.0,0.0,0.0,1.2184696791468346e-07,-0.9022118,-0.02941994999999953,3.8245935,8.999999999999999e-08,0.0,0.0,0.0,8.999999999999999e-08,0.0,0.0,0.0,8.999999999999999e-08
1532135127.4790885,4518,1532135127,478580816,base_link,0.24843870658194883,0.09514641995938321,-0.34078566059446663,-0.9017153106019629,1.0,0.0,0.0,0.0,1.0,0.0,0.0,0.0,1.0,-0.1754472255706787,0.29112353920936584,0.185183048248291,1.2184696791468346e-07,0.0,0.0,0.0,1.2184696791468346e-07,0.0,0.0,0.0,1.2184696791468346e-07,-0.85317855,-0.1569063999999995,3.9814999,8.999999999999999e-08,0.0,0.0,0.0,8.999999999999999e-08,0.0,0.0,0.0,8.999999999999999e-08
1532135127.8851244,4519,1532135127,884923248,base_link,0.2898313400257147,0.047952983793169694,-0.3743475035857211,-0.8795238781541799,1.0,0.0,0.0,0.0,1.0,0.0,0.0,0.0,1.0,-0.0921715795993805,0.1680616289377213,0.3893648087978363,1.2184696791468346e-07,0.0,0.0,0.0,1.2184696791468346e-07,0.0,0.0,0.0,1.2184696791468346e-07,-0.6276256,-0.33342609999999945,4.6287388,8.999999999999999e-08,0.0,0.0,0.0,8.999999999999999e-08,0.0,0.0,0.0,8.999999999999999e-08
1532135128.402451,4520,1532135128,402213584,base_link,0.3209129443585851,0.019427723861010604,-0.4670600352130761,-0.8237064824289317,1.0,0.0,0.0,0.0,1.0,0.0,0.0,0.0,1.0,-0.04683741182088852,-0.10739516466855997,0.43429693579673767,1.2184696791468346e-07,0.0,0.0,0.0,1.2184696791468346e-07,0.0,0.0,0.0,1.2184696791468346e-07,-0.4707192,-0.617818949999999,7.9629998,8.999999999999999e-08,0.0,0.0,0.0,8.999999999999999e-08,0.0,0.0,0.0,8.999999999999999e-08
1532135128.7370365,4521,1532135128,736841456,base_link,0.33013067372122235,0.02461295069460737,-0.5270585221150794,-0.7826987001345697,1.0,0.0,0.0,0.0,1.0,0.0,0.0,0.0,1.0,-0.10990606993436813,-0.14686504006385798,0.40791940689086914,1.2184696791468346e-07,0.0,0.0,0.0,1.2184696791468346e-07,0.0,0.0,0.0,1.2184696791468346e-07,-0.4707192,0.39226600000000117,9.5712904,8.999999999999999e-08,0.0,0.0,0.0,8.999999999999999e-08,0.0,0.0,0.0,8.999999999999999e-08
1532135129.119463,4522,1532135129,117857776,base_link,0.33231770362237406,0.041713567233839434,-0.5887019948644578,-0.735700267371426,1.0,0.0,0.0,0.0,1.0,0.0,0.0,0.0,1.0,-0.051982581615448,-0.24058848619461057,0.2870763540267945,1.2184696791468346e-07,0.0,0.0,0.0,1.2184696791468346e-07,0.0,0.0,0.0,1.2184696791468346e-07,-0.67665885,0.3726527000000014,11.28745415,8.999999999999999e-08,0.0,0.0,0.0,8.999999999999999e-08,0.0,0.0,0.0,8.999999999999999e-08
1532135129.5742602,4523,1532135129,570760880,base_link,0.31014605047369503,0.0788372562855363,-0.6431806799007159,-0.695638359637671,1.0,0.0,0.0,0.0,1.0,0.0,0.0,0.0,1.0,-0.04951726645231247,-0.296214759349823,0.19354453682899478,1.2184696791468346e-07,0.0,0.0,0.0,1.2184696791468346e-07,0.0,0.0,0.0,1.2184696791468346e-07,-0.83356525,0.10787315000000139,11.38552065,8.999999999999999e-08,0.0,0.0,0.0,8.999999999999999e-08,0.0,0.0,0.0,8.999999999999999e-08
1532135130.0794375,4524,1532135130,78421200,base_link,0.27419352434221267,0.13030073128647202,-0.7058265949090199,-0.6400378493137304,1.0,0.0,0.0,0.0,1.0,0.0,0.0,0.0,1.0,-0.06542060524225235,-0.36456832289695734,0.2828319668769837,1.2184696791468346e-07,0.0,0.0,0.0,1.2184696791468346e-07,0.0,0.0,0.0,1.2184696791468346e-07,-0.99047165,-0.5393657499999983,13.95486295,8.999999999999999e-08,0.0,0.0,0.0,8.999999999999999e-08,0.0,0.0,0.0,8.999999999999999e-08
1532135130.366787,4525,1532135130,366351184,base_link,0.25232050286846114,0.15902029328785905,-0.7421230118500142,-0.600250235683014,1.0,0.0,0.0,0.0,1.0,0.0,0.0,0.0,1.0,-0.04683731868863106,-0.3571823835372924,0.290110468864441,1.2184696791468346e-07,0.0,0.0,0.0,1.2184696791468346e-07,0.0,0.0,0.0,1.2184696791468346e-07,-0.79433865,-0.04903324999999832,13.71950335,8.999999999999999e-08,0.0,0.0,0.0,8.999999999999999e-08,0.0,0.0,0.0,8.999999999999999e-08
1532135130.6420445,4526,1532135130,641662704,base_link,0.2307911650579642,0.1869258263263453,-0.776728561759923,-0.5554159836822865,1.0,0.0,0.0,0.0,1.0,0.0,0.0,0.0,1.0,-0.08401994407176971,-0.3277429640293121,0.31066000461578375,1.2184696791468346e-07,0.0,0.0,0.0,1.2184696791468346e-07,0.0,0.0,0.0,1.2184696791468346e-07,-1.0002783,-0.5001391499999983,14.24906245,8.999999999999999e-08,0.0,0.0,0.0,8.999999999999999e-08,0.0,0.0,0.0,8.999999999999999e-08
1532135131.012777,4527,1532135131,12511760,base_link,0.19826484506259126,0.21853338457861252,-0.8202276230536139,-0.4900620954703007,1.0,0.0,0.0,0.0,1.0,0.0,0.0,0.0,1.0,-0.11816196143627167,-0.2984416782855987,0.31726539134979254,1.2184696791468346e-07,0.0,0.0,0.0,1.2184696791468346e-07,0.0,0.0,0.0,1.2184696791468346e-07,-0.980665,-0.4805258499999982,14.54326195,8.999999999999999e-08,0.0,0.0,0.0,8.999999999999999e-08,0.0,0.0,0.0,8.999999999999999e-08
1532135131.4851556,4528,1532135131,484841616,base_link,0.1732269374815458,0.2572294238084768,-0.8580327746016743,-0.40939615211586433,1.0,0.0,0.0,0.0,1.0,0.0,0.0,0.0,1.0,-0.10941130667924881,-0.23349054157733914,0.3232302367687226,1.2184696791468346e-07,0.0,0.0,0.0,1.2184696791468346e-07,0.0,0.0,0.0,1.2184696791468346e-07,-0.8825985000000001,-0.02941994999999856,11.76798,8.999999999999999e-08,0.0,0.0,0.0,8.999999999999999e-08,0.0,0.0,0.0,8.999999999999999e-08
1532135131.9243827,4529,1532135131,924162352,base_link,0.1497488271908906,0.291140806357096,-0.886537047570708,-0.32690118218401276,1.0,0.0,0.0,0.0,1.0,0.0,0.0,0.0,1.0,-0.1153150126338005,-0.25411549210548395,0.2901417016983033,1.2184696791468346e-07,0.0,0.0,0.0,1.2184696791468346e-07,0.0,0.0,0.0,1.2184696791468346e-07,-0.7453054,-0.07845319999999832,13.73911665,8.999999999999999e-08,0.0,0.0,0.0,8.999999999999999e-08,0.0,0.0,0.0,8.999999999999999e-08
1532135132.376506,4530,1532135132,376043408,base_link,0.1211167826754818,0.3173972337974927,-0.9065160689772835,-0.2506358665834011,1.0,0.0,0.0,0.0,1.0,0.0,0.0,0.0,1.0,0.003106166375800967,-0.23840162158012387,0.3000544905662537,1.2184696791468346e-07,0.0,0.0,0.0,1.2184696791468346e-07,0.0,0.0,0.0,1.2184696791468346e-07,-0.95124505,-0.2745861999999985,12.1014061,8.999999999999999e-08,0.0,0.0,0.0,8.999999999999999e-08,0.0,0.0,0.0,8.999999999999999e-08
1532135132.7935464,4531,1532135132,793159728,base_link,0.09152060618499087,0.32114281172241604,-0.9288008567428592,-0.16068678114979917,1.0,0.0,0.0,0.0,1.0,0.0,0.0,0.0,1.0,-0.019872799515724182,-0.23091697692871088,0.3804973959922791,1.2184696791468346e-07,0.0,0.0,0.0,1.2184696791468346e-07,0.0,0.0,0.0,1.2184696791468346e-07,-0.73549875,-0.09806649999999857,11.6699135,8.999999999999999e-08,0.0,0.0,0.0,8.999999999999999e-08,0.0,0.0,0.0,8.999999999999999e-08
1532135133.115828,4532,1532135133,114258544,base_link,0.0753550067888037,0.3217618443754097,-0.9396727010495152,-0.08835243832686444,1.0,0.0,0.0,0.0,1.0,0.0,0.0,0.0,1.0,0.08825352787971497,-0.2356660366058349,0.38721984624862676,1.2184696791468346e-07,0.0,0.0,0.0,1.2184696791468346e-07,0.0,0.0,0.0,1.2184696791468346e-07,-0.8237586,-0.03922659999999859,11.4737805,8.999999999999999e-08,0.0,0.0,0.0,8.999999999999999e-08,0.0,0.0,0.0,8.999999999999999e-08
1532135133.5210516,4533,1532135133,520748592,base_link,0.053433483683626326,0.31945421923191486,-0.9460870944537941,-0.003615846282284551,1.0,0.0,0.0,0.0,1.0,0.0,0.0,0.0,1.0,-0.08368281275033951,-0.2299451977014541,0.36222261190414434,1.2184696791468346e-07,0.0,0.0,0.0,1.2184696791468346e-07,0.0,0.0,0.0,1.2184696791468346e-07,-0.95124505,-0.2843928499999987,10.7284751,8.999999999999999e-08,0.0,0.0,0.0,8.999999999999999e-08,0.0,0.0,0.0,8.999999999999999e-08
1532135134.0174444,4534,1532135134,15108304,base_link,0.03141248423033474,0.31201814724066695,-0.9437076529527764,0.10523211194945627,1.0,0.0,0.0,0.0,1.0,0.0,0.0,0.0,1.0,0.11034604161977768,-0.21889765560626978,0.39744627475738525,1.2184696791468346e-07,0.0,0.0,0.0,1.2184696791468346e-07,0.0,0.0,0.0,1.2184696791468346e-07,-0.9610517000000001,-0.18632634999999875,10.18910935,8.999999999999999e-08,0.0,0.0,0.0,8.999999999999999e-08,0.0,0.0,0.0,8.999999999999999e-08
1532135134.4024873,4535,1532135134,402106256,base_link,0.002691028919368089,0.3100145912131292,-0.9323326005159756,0.1861172576990911,1.0,0.0,0.0,0.0,1.0,0.0,0.0,0.0,1.0,-0.23913633823394775,-0.27456739544868464,0.3197126388549805,1.2184696791468346e-07,0.0,0.0,0.0,1.2184696791468346e-07,0.0,0.0,0.0,1.2184696791468346e-07,-0.87279185,-0.02941994999999862,11.26784085,8.999999999999999e-08,0.0,0.0,0.0,8.999999999999999e-08,0.0,0.0,0.0,8.999999999999999e-08
1532135134.7961588,4536,1532135134,795806512,base_link,-0.04921543365448989,0.3519301295087552,-0.8986739799152454,0.2571149603921254,1.0,0.0,0.0,0.0,1.0,0.0,0.0,0.0,1.0,-0.1449798047542572,-0.3137038350105285,0.26348277926445013,1.2184696791468346e-07,0.0,0.0,0.0,1.2184696791468346e-07,0.0,0.0,0.0,1.2184696791468346e-07,-0.42168595,-0.019613299999998477,12.4348322,8.999999999999999e-08,0.0,0.0,0.0,8.999999999999999e-08,0.0,0.0,0.0,8.999999999999999e-08
1532135135.1230443,4537,1532135135,122831152,base_link,-0.08148580836259753,0.33259694232289067,-0.883065510497117,0.3208342892575913,1.0,0.0,0.0,0.0,1.0,0.0,0.0,0.0,1.0,0.1905752271413803,-0.32524177432060236,0.3091630339622498,1.2184696791468346e-07,0.0,0.0,0.0,1.2184696791468346e-07,0.0,0.0,0.0,1.2184696791468346e-07,-0.4314926,-0.5883989999999986,12.062179500000001,8.999999999999999e-08,0.0,0.0,0.0,8.999999999999999e-08,0.0,0.0,0.0,8.999999999999999e-08
1532135135.5265758,4538,1532135135,526282704,base_link,-0.08978483379547343,0.2524679157109278,-0.870456931673274,0.4129205314087062,1.0,0.0,0.0,0.0,1.0,0.0,0.0,0.0,1.0,0.38697731494903564,-0.27621504664421076,0.41621249914169317,1.2184696791468346e-07,0.0,0.0,0.0,1.2184696791468346e-07,0.0,0.0,0.0,1.2184696791468346e-07,-0.3530394,-0.9708583499999983,13.140911000000001,8.999999999999999e-08,0.0,0.0,0.0,8.999999999999999e-08,0.0,0.0,0.0,8.999999999999999e-08
1532135135.9183435,4539,1532135135,917998928,base_link,-0.08749631690543033,0.17080649186949526,-0.8488231726705652,0.49261420848438453,1.0,0.0,0.0,0.0,1.0,0.0,0.0,0.0,1.0,0.40198665857315063,-0.2039726376533508,0.23930135369300845,1.2184696791468346e-07,0.0,0.0,0.0,1.2184696791468346e-07,0.0,0.0,0.0,1.2184696791468346e-07,-0.12748645,0.5099458000000016,12.7290317,8.999999999999999e-08,0.0,0.0,0.0,8.999999999999999e-08,0.0,0.0,0.0,8.999999999999999e-08
1532135136.3479936,4540,1532135136,347702544,base_link,-0.0777186593890391,0.09375667258219024,-0.8416475115975082,0.5261168715701945,1.0,0.0,0.0,0.0,1.0,0.0,0.0,0.0,1.0,0.26754358410835266,-0.13102057576179504,0.038574457168579115,1.2184696791468346e-07,0.0,0.0,0.0,1.2184696791468346e-07,0.0,0.0,0.0,1.2184696791468346e-07,0.0,0.9904716500000016,12.40541225,8.999999999999999e-08,0.0,0.0,0.0,8.999999999999999e-08,0.0,0.0,0.0,8.999999999999999e-08
1532135136.7251067,4541,1532135136,724834512,base_link,-0.0588516589619467,0.031071093799331154,-0.8414348248987725,0.5362448179843902,1.0,0.0,0.0,0.0,1.0,0.0,0.0,0.0,1.0,0.42741501331329346,-0.022907279431819916,0.009137658402323726,1.2184696791468346e-07,0.0,0.0,0.0,1.2184696791468346e-07,0.0,0.0,0.0,1.2184696791468346e-07,-0.1176798,0.5393657500000013,10.0420096,8.999999999999999e-08,0.0,0.0,0.0,8.999999999999999e-08,0.0,0.0,0.0,8.999999999999999e-08
1532135137.060988,4542,1532135137,60669040,base_link,-0.015708213276352953,-0.03546944094140297,-0.8360819390700316,0.5472313605376291,1.0,0.0,0.0,0.0,1.0,0.0,0.0,0.0,1.0,0.35076719522476196,0.016659118235111247,0.09224525839090347,1.2184696791468346e-07,0.0,0.0,0.0,1.2184696791468346e-07,0.0,0.0,0.0,1.2184696791468346e-07,-0.08825985,0.8924051500000011,9.551677100000001,8.999999999999999e-08,0.0,0.0,0.0,8.999999999999999e-08,0.0,0.0,0.0,8.999999999999999e-08
1532135137.402399,4543,1532135137,401902256,base_link,0.008450903201110416,-0.056385074482018245,-0.8281446868804576,0.5576071046914769,1.0,0.0,0.0,0.0,1.0,0.0,0.0,0.0,1.0,0.05835084989666939,0.09120991826057434,0.0037241145037114507,1.2184696791468346e-07,0.0,0.0,0.0,1.2184696791468346e-07,0.0,0.0,0.0,1.2184696791468346e-07,-0.0784532,0.39226600000000106,8.4925589,8.999999999999999e-08,0.0,0.0,0.0,8.999999999999999e-08,0.0,0.0,0.0,8.999999999999999e-08
1532135137.8711445,4544,1532135137,870792304,base_link,0.04258939792375719,-0.07166605447450676,-0.8365009765788636,0.5415867760600849,1.0,0.0,0.0,0.0,1.0,0.0,0.0,0.0,1.0,0.22913415729999542,0.04713342338800428,-0.1488383561372757,1.2184696791468346e-07,0.0,0.0,0.0,1.2184696791468346e-07,0.0,0.0,0.0,1.2184696791468346e-07,0.20593965,0.06864655000000115,9.48303055,8.999999999999999e-08,0.0,0.0,0.0,8.999999999999999e-08,0.0,0.0,0.0,8.999999999999999e-08
1532135138.2502983,4545,1532135138,250063632,base_link,0.0706850309892489,-0.09708372813108639,-0.8461690576824913,0.5192073785559514,1.0,0.0,0.0,0.0,1.0,0.0,0.0,0.0,1.0,-0.04778822511434555,0.0067489612847566475,-0.10796762257814407,1.2184696791468346e-07,0.0,0.0,0.0,1.2184696791468346e-07,0.0,0.0,0.0,1.2184696791468346e-07,0.2353596,0.36284605000000114,9.1397978,8.999999999999999e-08,0.0,0.0,0.0,8.999999999999999e-08,0.0,0.0,0.0,8.999999999999999e-08
1532135138.5895617,4546,1532135138,589160816,base_link,0.06229904180569246,-0.07202957814909947,-0.8582197463119944,0.5043703364611474,1.0,0.0,0.0,0.0,1.0,0.0,0.0,0.0,1.0,-0.04993654415011406,0.007163866423070415,-0.12911029160022736,1.2184696791468346e-07,0.0,0.0,0.0,1.2184696791468346e-07,0.0,0.0,0.0,1.2184696791468346e-07,0.28439285000000003,0.3922660000000011,9.16921775,8.999999999999999e-08,0.0,0.0,0.0,8.999999999999999e-08,0.0,0.0,0.0,8.999999999999999e-08
1532135138.8820276,4547,1532135138,876122064,base_link,0.05408211232325068,-0.06312480688944282,-0.8671818868902018,0.4910050498023162,1.0,0.0,0.0,0.0,1.0,0.0,0.0,0.0,1.0,-0.1667362004518509,-0.02487276867032052,-0.08453130722045898,1.2184696791468346e-07,0.0,0.0,0.0,1.2184696791468346e-07,0.0,0.0,0.0,1.2184696791468346e-07,0.36284605000000003,0.2843928500000012,9.6693569,8.999999999999999e-08,0.0,0.0,0.0,8.999999999999999e-08,0.0,0.0,0.0,8.999999999999999e-08
1532135139.2364137,4548,1532135139,236193456,base_link,0.0465813504169199,-0.0642034622405089,-0.873669541801273,0.4800100258936487,1.0,0.0,0.0,0.0,1.0,0.0,0.0,0.0,1.0,-0.07331019639968872,-0.04453342035412789,-0.055241804569959634,1.2184696791468346e-07,0.0,0.0,0.0,1.2184696791468346e-07,0.0,0.0,0.0,1.2184696791468346e-07,0.3726527,0.1863263500000012,9.551677100000001,8.999999999999999e-08,0.0,0.0,0.0,8.999999999999999e-08,0.0,0.0,0.0,8.999999999999999e-08
1532135139.6933384,4549,1532135139,686772560,base_link,0.02005080811995516,-0.041386167855300963,-0.881566996486497,0.46981355973382266,1.0,0.0,0.0,0.0,1.0,0.0,0.0,0.0,1.0,-0.250243216753006,-0.04011987149715424,-0.028683165088295933,1.2184696791468346e-07,0.0,0.0,0.0,1.2184696791468346e-07,0.0,0.0,0.0,1.2184696791468346e-07,0.75511205,0.23535960000000128,10.56176205,8.999999999999999e-08,0.0,0.0,0.0,8.999999999999999e-08,0.0,0.0,0.0,8.999999999999999e-08
1532135140.0471056,4550,1532135140,46847088,base_link,-0.0005076728802251931,-0.023457551412549467,-0.8847102595821537,0.465550472172516,1.0,0.0,0.0,0.0,1.0,0.0,0.0,0.0,1.0,0.00942053459584713,-0.071473628282547,0.0030751284211874095,1.2184696791468346e-07,0.0,0.0,0.0,1.2184696791468346e-07,0.0,0.0,0.0,1.2184696791468346e-07,0.65704555,0.11767980000000132,10.87557485,8.999999999999999e-08,0.0,0.0,0.0,8.999999999999999e-08,0.0,0.0,0.0,8.999999999999999e-08
1532135140.3478682,4551,1532135140,345384912,base_link,-0.014103762933932668,-0.023541110503063085,-0.8803847415353778,0.47346552869144765,1.0,0.0,0.0,0.0,1.0,0.0,0.0,0.0,1.0,-0.07350578904151917,-0.05928612872958182,0.08864825218915941,1.2184696791468346e-07,0.0,0.0,0.0,1.2184696791468346e-07,0.0,0.0,0.0,1.2184696791468346e-07,0.784532,0.21574630000000128,10.52253545,8.999999999999999e-08,0.0,0.0,0.0,8.999999999999999e-08,0.0,0.0,0.0,8.999999999999999e-08
1532135140.8698833,4552,1532135140,869480176,base_link,-0.046003170302380936,-0.0004371273896761606,-0.8706561248738052,0.48973608143724146,1.0,0.0,0.0,0.0,1.0,0.0,0.0,0.0,1.0,-0.11844823509454727,-0.051917817443609224,0.09632516652345657,1.2184696791468346e-07,0.0,0.0,0.0,1.2184696791468346e-07,0.0,0.0,0.0,1.2184696791468346e-07,0.7649187,0.3040061500000014,11.7287534,8.999999999999999e-08,0.0,0.0,0.0,8.999999999999999e-08,0.0,0.0,0.0,8.999999999999999e-08
1532135141.2648337,4553,1532135141,264349328,base_link,-0.0604468973934585,0.01378671869465247,-0.863566648792685,0.5004085751424636,1.0,0.0,0.0,0.0,1.0,0.0,0.0,0.0,1.0,-0.17088472843170166,-0.01628334447741508,0.040686409920454025,1.2184696791468346e-07,0.0,0.0,0.0,1.2184696791468346e-07,0.0,0.0,0.0,1.2184696791468346e-07,0.77472535,0.5982056500000013,10.36562905,8.999999999999999e-08,0.0,0.0,0.0,8.999999999999999e-08,0.0,0.0,0.0,8.999999999999999e-08
1532135141.7592244,4554,1532135141,755785936,base_link,-0.06401755048630713,0.02744231453038522,-0.8626556733970219,0.5009729151949028,1.0,0.0,0.0,0.0,1.0,0.0,0.0,0.0,1.0,0.1187857985496521,0.057442132383584976,-0.007846760563552387,1.2184696791468346e-07,0.0,0.0,0.0,1.2184696791468346e-07,0.0,0.0,0.0,1.2184696791468346e-07,0.93163175,0.22555295000000114,9.2574776,8.999999999999999e-08,0.0,0.0,0.0,8.999999999999999e-08,0.0,0.0,0.0,8.999999999999999e-08
1532135142.1254907,4555,1532135142,125261744,base_link,-0.04725188514190455,0.020046367324570446,-0.8624720747636349,0.5034951069876807,1.0,0.0,0.0,0.0,1.0,0.0,0.0,0.0,1.0,0.11176912486553192,0.09783437103033066,0.045463446527719484,1.2184696791468346e-07,0.0,0.0,0.0,1.2184696791468346e-07,0.0,0.0,0.0,1.2184696791468346e-07,0.97085835,-0.029419949999999008,8.11009955,8.999999999999999e-08,0.0,0.0,0.0,8.999999999999999e-08,0.0,0.0,0.0,8.999999999999999e-08
1532135142.664327,4556,1532135142,664058480,base_link,0.010136349797720557,-0.05315637840165089,-0.848724523774547,0.5260592519780136,1.0,0.0,0.0,0.0,1.0,0.0,0.0,0.0,1.0,0.42475077509880066,0.018125498667359363,0.09246005862951279,1.2184696791468346e-07,0.0,0.0,0.0,1.2184696791468346e-07,0.0,0.0,0.0,1.2184696791468346e-07,0.99047165,0.2843928500000012,9.7870367,8.999999999999999e-08,0.0,0.0,0.0,8.999999999999999e-08,0.0,0.0,0.0,8.999999999999999e-08
1532135143.1325598,4557,1532135143,131789968,base_link,0.053234613029386424,-0.12169358715158116,-0.8433994132732521,0.5206094279900492,1.0,0.0,0.0,0.0,1.0,0.0,0.0,0.0,1.0,0.17353586852550507,0.006024383939802627,-0.16206540167331696,1.2184696791468346e-07,0.0,0.0,0.0,1.2184696791468346e-07,0.0,0.0,0.0,1.2184696791468346e-07,1.26505785,0.8041453000000012,9.11037785,8.999999999999999e-08,0.0,0.0,0.0,8.999999999999999e-08,0.0,0.0,0.0,8.999999999999999e-08
1532135143.588335,4558,1532135143,588068240,base_link,0.07453122501021893,-0.14002109237802218,-0.8700709331103715,0.4667073617848648,1.0,0.0,0.0,0.0,1.0,0.0,0.0,0.0,1.0,0.18817771971225739,-0.043966311961412465,-0.30961769819259644,1.2184696791468346e-07,0.0,0.0,0.0,1.2184696791468346e-07,0.0,0.0,0.0,1.2184696791468346e-07,0.89240515,0.7060788000000011,9.11037785,8.999999999999999e-08,0.0,0.0,0.0,8.999999999999999e-08,0.0,0.0,0.0,8.999999999999999e-08
1532135143.8834996,4559,1532135143,883195856,base_link,0.08280627641640252,-0.18311264782437647,-0.8819340338418032,0.42638625534170427,1.0,0.0,0.0,0.0,1.0,0.0,0.0,0.0,1.0,0.26106032729148865,-0.2004874646663666,-0.19522660970687863,1.2184696791468346e-07,0.0,0.0,0.0,1.2184696791468346e-07,0.0,0.0,0.0,1.2184696791468346e-07,0.9218251,0.32361945000000125,9.9635564,8.999999999999999e-08,0.0,0.0,0.0,8.999999999999999e-08,0.0,0.0,0.0,8.999999999999999e-08
1532135144.275923,4560,1532135144,275458960,base_link,0.05347400701790211,-0.19005742330287692,-0.8989955291360808,0.3909293350648661,1.0,0.0,0.0,0.0,1.0,0.0,0.0,0.0,1.0,-0.1185091957449913,-0.17272137105464938,-0.19928750395774839,1.2184696791468346e-07,0.0,0.0,0.0,1.2184696791468346e-07,0.0,0.0,0.0,1.2184696791468346e-07,1.6279039,0.8531785500000016,13.20955755,8.999999999999999e-08,0.0,0.0,0.0,8.999999999999999e-08,0.0,0.0,0.0,8.999999999999999e-08
1532135144.7532377,4561,1532135144,752862896,base_link,0.03998817081649491,-0.21569329046282723,-0.9184168664863264,0.3292230398946986,1.0,0.0,0.0,0.0,1.0,0.0,0.0,0.0,1.0,0.04354394972324371,-0.164339154958725,-0.25733375549316406,1.2184696791468346e-07,0.0,0.0,0.0,1.2184696791468346e-07,0.0,0.0,0.0,1.2184696791468346e-07,0.61781895,0.39226600000000134,10.75789505,8.999999999999999e-08,0.0,0.0,0.0,8.999999999999999e-08,0.0,0.0,0.0,8.999999999999999e-08
1532135145.0641403,4562,1532135145,61746352,base_link,0.020350546508089686,-0.2413141789057447,-0.9238397117702859,0.2964346627371091,1.0,0.0,0.0,0.0,1.0,0.0,0.0,0.0,1.0,-0.0020807653199881315,-0.21874193847179413,-0.10403721779584882,1.2184696791468346e-07,0.0,0.0,0.0,1.2184696791468346e-07,0.0,0.0,0.0,1.2184696791468346e-07,0.91201845,0.4020726500000015,11.83662655,8.999999999999999e-08,0.0,0.0,0.0,8.999999999999999e-08,0.0,0.0,0.0,8.999999999999999e-08
1532135145.4722264,4563,1532135145,471893616,base_link,-0.012527818359028713,-0.22183992238889677,-0.9388495960245163,0.2630428456473463,1.0,0.0,0.0,0.0,1.0,0.0,0.0,0.0,1.0,-0.09341143816709518,-0.07720718532800677,-0.22903013229370117,1.2184696791468346e-07,0.0,0.0,0.0,1.2184696791468346e-07,0.0,0.0,0.0,1.2184696791468346e-07,1.08853815,0.8924051500000014,11.11093445,8.999999999999999e-08,0.0,0.0,0.0,8.999999999999999e-08,0.0,0.0,0.0,8.999999999999999e-08
1532135145.8725274,4564,1532135145,872105008,base_link,-0.0210854391056702,-0.1800692380870469,-0.9621837967302785,0.20330473448047787,1.0,0.0,0.0,0.0,1.0,0.0,0.0,0.0,1.0,-0.2471333146095276,-0.02178915403783325,-0.2857827842235565,1.2184696791468346e-07,0.0,0.0,0.0,1.2184696791468346e-07,0.0,0.0,0.0,1.2184696791468346e-07,1.0983448,0.5491724000000011,9.3555441,8.999999999999999e-08,0.0,0.0,0.0,8.999999999999999e-08,0.0,0.0,0.0,8.999999999999999e-08
1532135146.2453434,4565,1532135146,245000304,base_link,-0.02212898112036971,-0.1513646192955284,-0.9760261310795555,0.1548291047250761,1.0,0.0,0.0,0.0,1.0,0.0,0.0,0.0,1.0,-0.19736023247241974,-0.047713246196508435,-0.20489341020584106,1.2184696791468346e-07,0.0,0.0,0.0,1.2184696791468346e-07,0.0,0.0,0.0,1.2184696791468346e-07,1.02969825,-0.12748644999999903,7.83551335,8.999999999999999e-08,0.0,0.0,0.0,8.999999999999999e-08,0.0,0.0,0.0,8.999999999999999e-08
1532135146.7346392,4566,1532135146,734394384,base_link,-0.05050644027560962,-0.13882782414139577,-0.9788705627382288,0.14138018297977767,1.0,0.0,0.0,0.0,1.0,0.0,0.0,0.0,1.0,-0.23730425536632538,-0.132511705160141,0.07410631328821184,1.2184696791468346e-07,0.0,0.0,0.0,1.2184696791468346e-07,0.0,0.0,0.0,1.2184696791468346e-07,1.32389775,0.6668522000000014,11.1991943,8.999999999999999e-08,0.0,0.0,0.0,8.999999999999999e-08,0.0,0.0,0.0,8.999999999999999e-08
1532135147.079225,4567,1532135147,78882640,base_link,-0.07606846082378758,-0.09548001824638443,-0.9834978752781347,0.13352559569971817,1.0,0.0,0.0,0.0,1.0,0.0,0.0,0.0,1.0,-0.2590144872665405,-0.04987407475709916,-0.06597553938627243,1.2184696791468346e-07,0.0,0.0,0.0,1.2184696791468346e-07,0.0,0.0,0.0,1.2184696791468346e-07,1.52003075,0.6178189500000016,13.6312435,8.999999999999999e-08,0.0,0.0,0.0,8.999999999999999e-08,0.0,0.0,0.0,8.999999999999999e-08
1532135147.4329777,4568,1532135147,432635600,base_link,-0.08419770276316445,-0.04747852852991316,-0.9890556866826699,0.11146921018250722,1.0,0.0,0.0,0.0,1.0,0.0,0.0,0.0,1.0,-0.29404985904693604,0.03324648737907408,-0.11492814868688583,1.2184696791468346e-07,0.0,0.0,0.0,1.2184696791468346e-07,0.0,0.0,0.0,1.2184696791468346e-07,0.95124505,0.6276256000000012,10.6696352,8.999999999999999e-08,0.0,0.0,0.0,8.999999999999999e-08,0.0,0.0,0.0,8.999999999999999e-08
1532135147.7921166,4569,1532135147,791385360,base_link,-0.08071514206071767,-0.0016035905018134278,-0.9929089815018652,0.08725966303252247,1.0,0.0,0.0,0.0,1.0,0.0,0.0,0.0,1.0,-0.20572972297668457,0.04361313953995704,-0.0706721842288971,1.2184696791468346e-07,0.0,0.0,0.0,1.2184696791468346e-07,0.0,0.0,0.0,1.2184696791468346e-07,0.75511205,0.23535960000000108,8.91424485,8.999999999999999e-08,0.0,0.0,0.0,8.999999999999999e-08,0.0,0.0,0.0,8.999999999999999e-08
1532135148.216442,4570,1532135148,215463472,base_link,-0.07292565797261569,0.02696325577796069,-0.9928619603732032,0.09044312517263564,1.0,0.0,0.0,0.0,1.0,0.0,0.0,0.0,1.0,-0.12607058882713318,0.04228072613477708,0.11084840446710587,1.2184696791468346e-07,0.0,0.0,0.0,1.2184696791468346e-07,0.0,0.0,0.0,1.2184696791468346e-07,1.14737805,0.16671305000000108,8.7279185,8.999999999999999e-08,0.0,0.0,0.0,8.999999999999999e-08,0.0,0.0,0.0,8.999999999999999e-08
1532135148.6941288,4571,1532135148,691410544,base_link,-0.0626501283996703,0.05273954456666443,-0.9897045746931815,0.11738124501722719,1.0,0.0,0.0,0.0,1.0,0.0,0.0,0.0,1.0,-0.22979214787483215,0.06231624260544779,0.15342901647090912,1.2184696791468346e-07,0.0,0.0,0.0,1.2184696791468346e-07,0.0,0.0,0.0,1.2184696791468346e-07,1.3140911,0.23535960000000106,8.4925589,8.999999999999999e-08,0.0,0.0,0.0,8.999999999999999e-08,0.0,0.0,0.0,8.999999999999999e-08
1532135148.989221,4572,1532135148,984798992,base_link,-0.056861638160296435,0.07903611220337967,-0.9853819953626847,0.13979402808616864,1.0,0.0,0.0,0.0,1.0,0.0,0.0,0.0,1.0,-0.06826619803905487,0.03155306726694109,0.17796830832958221,1.2184696791468346e-07,0.0,0.0,0.0,1.2184696791468346e-07,0.0,0.0,0.0,1.2184696791468346e-07,1.372931,0.3530394000000011,9.2967042,8.999999999999999e-08,0.0,0.0,0.0,8.999999999999999e-08,0.0,0.0,0.0,8.999999999999999e-08
1532135149.421957,4573,1532135149,419935856,base_link,-0.042524105003959624,0.06728065528465596,-0.9824160430023887,0.16888970474723447,1.0,0.0,0.0,0.0,1.0,0.0,0.0,0.0,1.0,0.12098407745361328,0.05247697234153749,0.11120658367872238,1.2184696791468346e-07,0.0,0.0,0.0,1.2184696791468346e-07,0.0,0.0,0.0,1.2184696791468346e-07,1.3925443,0.4314926000000011,9.14960445,8.999999999999999e-08,0.0,0.0,0.0,8.999999999999999e-08,0.0,0.0,0.0,8.999999999999999e-08
1532135149.7327855,4574,1532135149,732266544,base_link,-0.0322684633591211,0.04401809777732761,-0.9813433197499826,0.18435412152319813,1.0,0.0,0.0,0.0,1.0,0.0,0.0,0.0,1.0,0.20646817982196808,0.033717196434736266,0.08517823368310928,1.2184696791468346e-07,0.0,0.0,0.0,1.2184696791468346e-07,0.0,0.0,0.0,1.2184696791468346e-07,1.7848103,0.2745862000000011,9.022118,8.999999999999999e-08,0.0,0.0,0.0,8.999999999999999e-08,0.0,0.0,0.0,8.999999999999999e-08
1532135150.0738418,4575,1532135150,73447024,base_link,-0.01982741179720598,0.00977141105952631,-0.9805547221249451,0.19499700045334467,1.0,0.0,0.0,0.0,1.0,0.0,0.0,0.0,1.0,0.23452439904212952,0.01957093924283982,0.06594271957874298,1.2184696791468346e-07,0.0,0.0,0.0,1.2184696791468346e-07,0.0,0.0,0.0,1.2184696791468346e-07,1.63771055,0.38245935000000103,8.3944924,8.999999999999999e-08,0.0,0.0,0.0,8.999999999999999e-08,0.0,0.0,0.0,8.999999999999999e-08
1532135150.5394568,4576,1532135150,539144976,base_link,-0.010438942145690522,-0.0443242041391133,-0.9777718325268727,0.20466713691102006,1.0,0.0,0.0,0.0,1.0,0.0,0.0,0.0,1.0,0.23207001388072968,-0.021492745727300644,-3.4679658710953944e-05,1.2184696791468346e-07,0.0,0.0,0.0,1.2184696791468346e-07,0.0,0.0,0.0,1.2184696791468346e-07,1.8632635,0.48052585000000125,10.28717585,8.999999999999999e-08,0.0,0.0,0.0,8.999999999999999e-08,0.0,0.0,0.0,8.999999999999999e-08
1532135150.8374543,4577,1532135150,837015856,base_link,-0.004913063239135447,-0.0759247613184797,-0.9777450156447975,0.19551464602452345,1.0,0.0,0.0,0.0,1.0,0.0,0.0,0.0,1.0,0.13595910370349884,-0.015812523663043986,-0.09599636495113373,1.2184696791468346e-07,0.0,0.0,0.0,1.2184696791468346e-07,0.0,0.0,0.0,1.2184696791468346e-07,1.4317709,0.6178189500000013,9.9635564,8.999999999999999e-08,0.0,0.0,0.0,8.999999999999999e-08,0.0,0.0,0.0,8.999999999999999e-08
1532135151.187872,4578,1532135151,182784784,base_link,-0.00539220318605105,-0.09545986009814493,-0.979856246008135,0.17532848146746793,1.0,0.0,0.0,0.0,1.0,0.0,0.0,0.0,1.0,0.28371545672416687,-0.016172856092453024,-0.1610812097787857,1.2184696791468346e-07,0.0,0.0,0.0,1.2184696791468346e-07,0.0,0.0,0.0,1.2184696791468346e-07,1.52003075,0.5687857000000013,10.1596894,8.999999999999999e-08,0.0,0.0,0.0,8.999999999999999e-08,0.0,0.0,0.0,8.999999999999999e-08
1532135151.6426604,4579,1532135151,642203504,base_link,-0.010939127029911818,-0.13706256522765697,-0.9793661350651772,0.14810861622652083,1.0,0.0,0.0,0.0,1.0,0.0,0.0,0.0,1.0,-0.0629042536020279,-0.08367300033569336,-0.02507171407341956,1.2184696791468346e-07,0.0,0.0,0.0,1.2184696791468346e-07,0.0,0.0,0.0,1.2184696791468346e-07,1.32389775,0.2255529500000012,9.67916355,8.999999999999999e-08,0.0,0.0,0.0,8.999999999999999e-08,0.0,0.0,0.0,8.999999999999999e-08
1532135152.0711265,4580,1532135152,70845104,base_link,-0.028679843638217684,-0.09165273211588756,-0.9854400572537796,0.1403037306141509,1.0,0.0,0.0,0.0,1.0,0.0,0.0,0.0,1.0,-0.20124433934688568,-0.03986393660306931,-0.07325546443462372,1.2184696791468346e-07,0.0,0.0,0.0,1.2184696791468346e-07,0.0,0.0,0.0,1.2184696791468346e-07,1.53964405,0.6570455500000011,8.99269805,8.999999999999999e-08,0.0,0.0,0.0,8.999999999999999e-08,0.0,0.0,0.0,8.999999999999999e-08
1532135152.521257,4581,1532135152,520387472,base_link,-0.03674768327837275,-0.0785650891839259,-0.9907311348760921,0.1045416324835452,1.0,0.0,0.0,0.0,1.0,0.0,0.0,0.0,1.0,-0.06065059080719948,-0.07394856214523317,-0.14361561834812164,1.2184696791468346e-07,0.0,0.0,0.0,1.2184696791468346e-07,0.0,0.0,0.0,1.2184696791468346e-07,1.2748645,0.49033250000000134,10.85596155,8.999999999999999e-08,0.0,0.0,0.0,8.999999999999999e-08,0.0,0.0,0.0,8.999999999999999e-08
1532135152.842909,4582,1532135152,842635504,base_link,-0.047884602467157374,-0.0748456610215012,-0.9922383180642356,0.08699604610482897,1.0,0.0,0.0,0.0,1.0,0.0,0.0,0.0,1.0,-0.1159614846110344,-0.0719936341047287,-0.04855391755700111,1.2184696791468346e-07,0.0,0.0,0.0,1.2184696791468346e-07,0.0,0.0,0.0,1.2184696791468346e-07,1.14737805,0.4412992500000013,10.93441475,8.999999999999999e-08,0.0,0.0,0.0,8.999999999999999e-08,0.0,0.0,0.0,8.999999999999999e-08
1532135153.1398666,4583,1532135153,139639216,base_link,-0.061495231667137634,-0.056899234779115467,-0.9932417848755666,0.08032166794181245,1.0,0.0,0.0,0.0,1.0,0.0,0.0,0.0,1.0,-0.0940045416355133,-0.06879191845655441,-0.001964628230780355,1.2184696791468346e-07,0.0,0.0,0.0,1.2184696791468346e-07,0.0,0.0,0.0,1.2184696791468346e-07,1.372931,0.33342610000000134,10.64021525,8.999999999999999e-08,0.0,0.0,0.0,8.999999999999999e-08,0.0,0.0,0.0,8.999999999999999e-08
1532135153.5365036,4584,1532135153,532665232,base_link,-0.07575115839553477,-0.03979814105310125,-0.9935871508053549,0.07390834678809177,1.0,0.0,0.0,0.0,1.0,0.0,0.0,0.0,1.0,-0.19421030580997467,-0.009195085614919673,-0.09110687673091888,1.2184696791468346e-07,0.0,0.0,0.0,1.2184696791468346e-07,0.0,0.0,0.0,1.2184696791468346e-07,1.0002783,0.5687857000000013,10.32640245,8.999999999999999e-08,0.0,0.0,0.0,8.999999999999999e-08,0.0,0.0,0.0,8.999999999999999e-08
1532135153.825113,4585,1532135153,819661776,base_link,-0.08002844259581209,-0.025451712301559765,-0.9946029906458388,0.060930695999318045,1.0,0.0,0.0,0.0,1.0,0.0,0.0,0.0,1.0,-0.14972777664661407,-0.00042281334754080285,-0.05756337568163872,1.2184696791468346e-07,0.0,0.0,0.0,1.2184696791468346e-07,0.0,0.0,0.0,1.2184696791468346e-07,1.14737805,0.39226600000000117,9.8458766,8.999999999999999e-08,0.0,0.0,0.0,8.999999999999999e-08,0.0,0.0,0.0,8.999999999999999e-08
1532135154.0857534,4586,1532135154,85261616,base_link,-0.08025936691614391,-0.015294301929690871,-0.9953275377688588,0.05145494057604282,1.0,0.0,0.0,0.0,1.0,0.0,0.0,0.0,1.0,0.015389746986329556,0.02647211775183677,-0.05277954787015915,1.2184696791468346e-07,0.0,0.0,0.0,1.2184696791468346e-07,0.0,0.0,0.0,1.2184696791468346e-07,1.0395049,0.19613300000000133,10.6696352,8.999999999999999e-08,0.0,0.0,0.0,8.999999999999999e-08,0.0,0.0,0.0,8.999999999999999e-08
1532135154.3658218,4587,1532135154,363812336,base_link,-0.07615576034245058,-0.012642731525041128,-0.9955056666559147,0.054853706914045945,1.0,0.0,0.0,0.0,1.0,0.0,0.0,0.0,1.0,-0.05764307081699371,0.03150486946105958,0.042699582874774926,1.2184696791468346e-07,0.0,0.0,0.0,1.2184696791468346e-07,0.0,0.0,0.0,1.2184696791468346e-07,1.01008495,0.26477955000000114,9.0809579,8.999999999999999e-08,0.0,0.0,0.0,8.999999999999999e-08,0.0,0.0,0.0,8.999999999999999e-08
1532135154.9442186,4588,1532135154,935386512,base_link,-0.06571048273757778,0.028690056866402146,-0.9953976489587856,0.06358092121634801,1.0,0.0,0.0,0.0,1.0,0.0,0.0,0.0,1.0,-0.09147153794765472,0.06221738830208779,0.02974697016179561,1.2184696791468346e-07,0.0,0.0,0.0,1.2184696791468346e-07,0.0,0.0,0.0,1.2184696791468346e-07,1.4317709,0.3726527000000011,8.91424485,8.999999999999999e-08,0.0,0.0,0.0,8.999999999999999e-08,0.0,0.0,0.0,8.999999999999999e-08
1532135155.3227324,4589,1532135155,319570416,base_link,-0.05859121329552077,0.023758295721393572,-0.9953660931104533,0.07244966387089824,1.0,0.0,0.0,0.0,1.0,0.0,0.0,0.0,1.0,0.05653108283877373,0.02109840139746667,0.09038590639829636,1.2184696791468346e-07,0.0,0.0,0.0,1.2184696791468346e-07,0.0,0.0,0.0,1.2184696791468346e-07,1.2552512,0.23535960000000108,8.85540495,8.999999999999999e-08,0.0,0.0,0.0,8.999999999999999e-08,0.0,0.0,0.0,8.999999999999999e-08
1532135155.6328118,4590,1532135155,632266512,base_link,-0.05471445329703861,0.024893243678208762,-0.994131607240851,0.08993888204945533,1.0,0.0,0.0,0.0,1.0,0.0,0.0,0.0,1.0,-0.03959329053759575,0.027400815859437003,0.11074106395244598,1.2184696791468346e-07,0.0,0.0,0.0,1.2184696791468346e-07,0.0,0.0,0.0,1.2184696791468346e-07,1.5102241,0.20593965000000122,9.97336305,8.999999999999999e-08,0.0,0.0,0.0,8.999999999999999e-08,0.0,0.0,0.0,8.999999999999999e-08
1532135156.0223463,4591,1532135156,19917392,base_link,-0.05163667705427358,0.01681905341571523,-0.99305926678697,0.10432672559568634,1.0,0.0,0.0,0.0,1.0,0.0,0.0,0.0,1.0,0.10233581811189651,0.01620318181812764,0.04256989806890488,1.2184696791468346e-07,0.0,0.0,0.0,1.2184696791468346e-07,0.0,0.0,0.0,1.2184696791468346e-07,1.3337044,0.4118793000000013,10.3362091,8.999999999999999e-08,0.0,0.0,0.0,8.999999999999999e-08,0.0,0.0,0.0,8.999999999999999e-08
1532135156.3993626,4592,1532135156,399078160,base_link,-0.04558271783576634,-0.013735787783487703,-0.9922231433992243,0.11500772874739346,1.0,0.0,0.0,0.0,1.0,0.0,0.0,0.0,1.0,0.16895590722560883,0.017438841983675964,0.05188916251063347,1.2184696791468346e-07,0.0,0.0,0.0,1.2184696791468346e-07,0.0,0.0,0.0,1.2184696791468346e-07,1.4121576,0.24516625000000122,9.9831697,8.999999999999999e-08,0.0,0.0,0.0,8.999999999999999e-08,0.0,0.0,0.0,8.999999999999999e-08
1532135156.7333455,4593,1532135156,733091664,base_link,-0.03836842379834973,-0.028291768208873958,-0.9914718473344675,0.12128897662204807,1.0,0.0,0.0,0.0,1.0,0.0,0.0,0.0,1.0,0.05172799527645111,0.027611026540398598,0.0076184868812561,1.2184696791468346e-07,0.0,0.0,0.0,1.2184696791468346e-07,0.0,0.0,0.0,1.2184696791468346e-07,1.40235095,0.37265270000000117,9.62032365,8.999999999999999e-08,0.0,0.0,0.0,8.999999999999999e-08,0.0,0.0,0.0,8.999999999999999e-08
1532135157.0195014,4594,1532135157,19196848,base_link,-0.031124965809095434,-0.036281182590258455,-0.9917764825832744,0.11871950508649748,1.0,0.0,0.0,0.0,1.0,0.0,0.0,0.0,1.0,0.09921033680438995,0.03688330203294753,-0.035500351339578635,1.2184696791468346e-07,0.0,0.0,0.0,1.2184696791468346e-07,0.0,0.0,0.0,1.2184696791468346e-07,1.3925443,0.2157463000000011,9.03192465,8.999999999999999e-08,0.0,0.0,0.0,8.999999999999999e-08,0.0,0.0,0.0,8.999999999999999e-08
1532135157.5445354,4595,1532135157,544227184,base_link,-0.028142622831165594,-0.04433649527483934,-0.9917343409456372,0.11706948772438297,1.0,0.0,0.0,0.0,1.0,0.0,0.0,0.0,1.0,-0.12477312982082367,-0.007405360229313368,0.042081255465745926,1.2184696791468346e-07,0.0,0.0,0.0,1.2184696791468346e-07,0.0,0.0,0.0,1.2184696791468346e-07,1.2552512,0.45110590000000117,9.91452315,8.999999999999999e-08,0.0,0.0,0.0,8.999999999999999e-08,0.0,0.0,0.0,8.999999999999999e-08
1532135157.9368236,4596,1532135157,931053520,base_link,-0.0342278591863503,-0.0079962689257729,-0.9921669301004955,0.1198719990395784,1.0,0.0,0.0,0.0,1.0,0.0,0.0,0.0,1.0,-0.14871424436569214,0.016027493402361866,-0.03847357630729675,1.2184696791468346e-07,0.0,0.0,0.0,1.2184696791468346e-07,0.0,0.0,0.0,1.2184696791468346e-07,1.48080415,0.5785923500000013,10.64021525,8.999999999999999e-08,0.0,0.0,0.0,8.999999999999999e-08,0.0,0.0,0.0,8.999999999999999e-08
1532135158.2925272,4597,1532135158,285629936,base_link,-0.031796454736042576,-0.006053953066809703,-0.9938313131467142,0.10607382395087317,1.0,0.0,0.0,0.0,1.0,0.0,0.0,0.0,1.0,0.07387860119342804,-0.007841195911169063,-0.0851469412446022,1.2184696791468346e-07,0.0,0.0,0.0,1.2184696791468346e-07,0.0,0.0,0.0,1.2184696791468346e-07,1.22583125,0.3824593500000012,9.7085835,8.999999999999999e-08,0.0,0.0,0.0,8.999999999999999e-08,0.0,0.0,0.0,8.999999999999999e-08
1532135158.6447542,4598,1532135158,644383056,base_link,-0.03840670713498513,-0.006157951487344432,-0.994908593644148,0.09297254849443815,1.0,0.0,0.0,0.0,1.0,0.0,0.0,0.0,1.0,0.0654648095369339,-0.03786224499344827,-0.08827134221792221,1.2184696791468346e-07,0.0,0.0,0.0,1.2184696791468346e-07,0.0,0.0,0.0,1.2184696791468346e-07,1.0198916,0.5393657500000014,11.4149406,8.999999999999999e-08,0.0,0.0,0.0,8.999999999999999e-08,0.0,0.0,0.0,8.999999999999999e-08
1532135159.0748107,4599,1532135159,74458064,base_link,-0.04092351822971356,-0.04524286689355159,-0.9950052622439663,0.07901187732088438,1.0,0.0,0.0,0.0,1.0,0.0,0.0,0.0,1.0,0.020678481087088585,-0.030068846419453624,-0.033463709056377404,1.2184696791468346e-07,0.0,0.0,0.0,1.2184696791468346e-07,0.0,0.0,0.0,1.2184696791468346e-07,0.8237586,0.5491724000000012,9.7870367,8.999999999999999e-08,0.0,0.0,0.0,8.999999999999999e-08,0.0,0.0,0.0,8.999999999999999e-08
1532135159.4277444,4600,1532135159,426222736,base_link,-0.044962831737491625,-0.031709074732844275,-0.9955861112666642,0.07603402787341007,1.0,0.0,0.0,0.0,1.0,0.0,0.0,0.0,1.0,0.01332230307161808,0.03093912452459335,-0.021076260134577755,1.2184696791468346e-07,0.0,0.0,0.0,1.2184696791468346e-07,0.0,0.0,0.0,1.2184696791468346e-07,0.89240515,0.25497290000000117,9.6301303,8.999999999999999e-08,0.0,0.0,0.0,8.999999999999999e-08,0.0,0.0,0.0,8.999999999999999e-08
1532135159.907021,4601,1532135159,906543920,base_link,-0.03601310384151404,-0.02358701483041592,-0.9963777720618612,0.07333515135412139,1.0,0.0,0.0,0.0,1.0,0.0,0.0,0.0,1.0,0.11020442843437195,0.06803504377603531,-0.04691422730684281,1.2184696791468346e-07,0.0,0.0,0.0,1.2184696791468346e-07,0.0,0.0,0.0,1.2184696791468346e-07,0.8825985000000001,0.44129925000000103,8.34545915,8.999999999999999e-08,0.0,0.0,0.0,8.999999999999999e-08,0.0,0.0,0.0,8.999999999999999e-08
1532135160.3322902,4602,1532135160,331939440,base_link,-0.021819556991075024,-0.03652384872759699,-0.9968164457324495,0.06743062304445258,1.0,0.0,0.0,0.0,1.0,0.0,0.0,0.0,1.0,-0.032118864357471466,0.058005549013614655,0.012851132079958909,1.2184696791468346e-07,0.0,0.0,0.0,1.2184696791468346e-07,0.0,0.0,0.0,1.2184696791468346e-07,1.0198916,0.25497290000000117,9.2770909,8.999999999999999e-08,0.0,0.0,0.0,8.999999999999999e-08,0.0,0.0,0.0,8.999999999999999e-08
1532135160.6853333,4603,1532135160,682759152,base_link,-0.013392319302203387,-0.033495780423624284,-0.9967877296516146,0.07150454876090007,1.0,0.0,0.0,0.0,1.0,0.0,0.0,0.0,1.0,-0.12172847986221313,0.049730092287063606,0.03211264312267303,1.2184696791468346e-07,0.0,0.0,0.0,1.2184696791468346e-07,0.0,0.0,0.0,1.2184696791468346e-07,0.8629852,0.38245935000000103,8.6102387,8.999999999999999e-08,0.0,0.0,0.0,8.999999999999999e-08,0.0,0.0,0.0,8.999999999999999e-08
1532135161.0221646,4604,1532135161,21941328,base_link,-0.00818451193899724,-0.020872739251950975,-0.9968024079504805,0.0766961669483191,1.0,0.0,0.0,0.0,1.0,0.0,0.0,0.0,1.0,-0.08830893039703369,0.04592972993850709,0.03162113204598426,1.2184696791468346e-07,0.0,0.0,0.0,1.2184696791468346e-07,0.0,0.0,0.0,1.2184696791468346e-07,1.06892485,0.21574630000000108,8.75733845,8.999999999999999e-08,0.0,0.0,0.0,8.999999999999999e-08,0.0,0.0,0.0,8.999999999999999e-08
1532135161.2954464,4605,1532135161,295117872,base_link,-0.007417879252714998,-0.007597920126419985,-0.99619362764167,0.08651880098148668,1.0,0.0,0.0,0.0,1.0,0.0,0.0,0.0,1.0,-0.1275443732738495,0.02315867505967618,0.07791507244110107,1.2184696791468346e-07,0.0,0.0,0.0,1.2184696791468346e-07,0.0,0.0,0.0,1.2184696791468346e-07,1.57887065,0.38245935000000125,10.13026945,8.999999999999999e-08,0.0,0.0,0.0,8.999999999999999e-08,0.0,0.0,0.0,8.999999999999999e-08
1532135161.689243,4606,1532135161,686851216,base_link,-0.0017102027286849933,0.004201450043874635,-0.9963251254294898,0.08553167519736349,1.0,0.0,0.0,0.0,1.0,0.0,0.0,0.0,1.0,-0.09297403693199158,0.04055411368608474,-0.0633486658334732,1.2184696791468346e-07,0.0,0.0,0.0,1.2184696791468346e-07,0.0,0.0,0.0,1.2184696791468346e-07,1.0591182,0.4609125500000012,9.639936950000001,8.999999999999999e-08,0.0,0.0,0.0,8.999999999999999e-08,0.0,0.0,0.0,8.999999999999999e-08
1532135162.1302607,4607,1532135162,129918608,base_link,0.002041777289860453,-0.015290404869539314,-0.9972457650535619,0.0725459767813485,1.0,0.0,0.0,0.0,1.0,0.0,0.0,0.0,1.0,0.2830091118812561,-0.011544097214937212,-0.010083043947815893,1.2184696791468346e-07,0.0,0.0,0.0,1.2184696791468346e-07,0.0,0.0,0.0,1.2184696791468346e-07,0.87279185,-0.15690639999999895,8.629852,8.999999999999999e-08,0.0,0.0,0.0,8.999999999999999e-08,0.0,0.0,0.0,8.999999999999999e-08
1532135162.6229212,4608,1532135162,622691504,base_link,-0.01428145848702127,-0.04220850700132108,-0.9949419981674411,0.09002723011835195,1.0,0.0,0.0,0.0,1.0,0.0,0.0,0.0,1.0,-0.004596001468598843,-0.061950962990522385,0.019737096503376968,1.2184696791468346e-07,0.0,0.0,0.0,1.2184696791468346e-07,0.0,0.0,0.0,1.2184696791468346e-07,0.9610517000000001,0.4511059000000013,10.40485565,8.999999999999999e-08,0.0,0.0,0.0,8.999999999999999e-08,0.0,0.0,0.0,8.999999999999999e-08
1532135163.042429,4609,1532135163,42118608,base_link,-0.027222873544581496,-0.04573719787910959,-0.9950534406663827,0.08387892526813212,1.0,0.0,0.0,0.0,1.0,0.0,0.0,0.0,1.0,-0.039611995220184326,-0.055085495114326484,-0.050663586705923074,1.2184696791468346e-07,0.0,0.0,0.0,1.2184696791468346e-07,0.0,0.0,0.0,1.2184696791468346e-07,0.9022118,0.2647795500000014,11.375714,8.999999999999999e-08,0.0,0.0,0.0,8.999999999999999e-08,0.0,0.0,0.0,8.999999999999999e-08
1532135163.4378612,4610,1532135163,435731728,base_link,-0.03434804776014547,-0.04547580461690382,-0.9954813715994679,0.07595394399209449,1.0,0.0,0.0,0.0,1.0,0.0,0.0,0.0,1.0,-0.011875596828758717,-0.010210112668573865,-0.06946103274822235,1.2184696791468346e-07,0.0,0.0,0.0,1.2184696791468346e-07,0.0,0.0,0.0,1.2184696791468346e-07,0.6080123,0.46091255000000125,10.03220295,8.999999999999999e-08,0.0,0.0,0.0,8.999999999999999e-08,0.0,0.0,0.0,8.999999999999999e-08
1532135163.9260967,4611,1532135163,925705936,base_link,-0.035436668711010026,-0.0422379297219933,-0.9970419011009499,0.053550417855226407,1.0,0.0,0.0,0.0,1.0,0.0,0.0,0.0,1.0,-0.03944121301174164,0.003887570928782217,-0.0627017393708229,1.2184696791468346e-07,0.0,0.0,0.0,1.2184696791468346e-07,0.0,0.0,0.0,1.2184696791468346e-07,0.50013915,0.13729310000000122,9.9439431,8.999999999999999e-08,0.0,0.0,0.0,8.999999999999999e-08,0.0,0.0,0.0,8.999999999999999e-08
1532135164.334892,4612,1532135164,334237360,base_link,-0.036254991429072445,-0.040038310343203945,-0.9972477282873613,0.05078855901712581,1.0,0.0,0.0,0.0,1.0,0.0,0.0,0.0,1.0,-0.00731426477432251,0.010370977222919464,-0.001317854039371015,1.2184696791468346e-07,0.0,0.0,0.0,1.2184696791468346e-07,0.0,0.0,0.0,1.2184696791468346e-07,0.75511205,0.6472389000000013,10.718668450000001,8.999999999999999e-08,0.0,0.0,0.0,8.999999999999999e-08,0.0,0.0,0.0,8.999999999999999e-08
1532135164.6166499,4613,1532135164,616347344,base_link,-0.02913326399458898,-0.024732557691182835,-0.998259913774292,0.044907661600412596,1.0,0.0,0.0,0.0,1.0,0.0,0.0,0.0,1.0,-0.02929752878844738,0.056493189185857766,-0.07062122970819473,1.2184696791468346e-07,0.0,0.0,0.0,1.2184696791468346e-07,0.0,0.0,0.0,1.2184696791468346e-07,0.4511059,0.5295591000000012,8.9044382,8.999999999999999e-08,0.0,0.0,0.0,8.999999999999999e-08,0.0,0.0,0.0,8.999999999999999e-08
1532135165.011494,4614,1532135165,11254480,base_link,-0.01583078491904647,-0.01583072322496775,-0.999511706254397,0.02179732808041346,1.0,0.0,0.0,0.0,1.0,0.0,0.0,0.0,1.0,-0.0979619175195694,0.04247509688138961,-0.08321265131235123,1.2184696791468346e-07,0.0,0.0,0.0,1.2184696791468346e-07,0.0,0.0,0.0,1.2184696791468346e-07,0.4511059,0.3040061500000011,8.8063717,8.999999999999999e-08,0.0,0.0,0.0,8.999999999999999e-08,0.0,0.0,0.0,8.999999999999999e-08
1532135165.5161605,4615,1532135165,515686384,base_link,-0.009155523255031411,0.001099290450270129,-0.9995374876774752,0.028978935139744144,1.0,0.0,0.0,0.0,1.0,0.0,0.0,0.0,1.0,-0.1175580695271492,0.00775441294535996,0.12068219482898712,1.2184696791468346e-07,0.0,0.0,0.0,1.2184696791468346e-07,0.0,0.0,0.0,1.2184696791468346e-07,0.3726527,0.05883990000000102,8.3160392,8.999999999999999e-08,0.0,0.0,0.0,8.999999999999999e-08,0.0,0.0,0.0,8.999999999999999e-08
1532135165.9711537,4616,1532135165,970791696,base_link,-0.0048358548276879266,-0.017223525748050614,-0.9987554346606462,0.046556915756047146,1.0,0.0,0.0,0.0,1.0,0.0,0.0,0.0,1.0,0.12771552801132202,0.00479250308126211,-0.013111292384564877,1.2184696791468346e-07,0.0,0.0,0.0,1.2184696791468346e-07,0.0,0.0,0.0,1.2184696791468346e-07,0.7060788,0.4314926000000013,10.32640245,8.999999999999999e-08,0.0,0.0,0.0,8.999999999999999e-08,0.0,0.0,0.0,8.999999999999999e-08
1532135166.321605,4617,1532135166,321308816,base_link,-0.005101305188258286,-0.04428423687205518,-0.9980552604400577,0.043572699686440064,1.0,0.0,0.0,0.0,1.0,0.0,0.0,0.0,1.0,0.2836686372756958,0.008965756744146344,-0.03406483680009842,1.2184696791468346e-07,0.0,0.0,0.0,1.2184696791468346e-07,0.0,0.0,0.0,1.2184696791468346e-07,0.28439285000000003,0.22555295000000106,8.52197885,8.999999999999999e-08,0.0,0.0,0.0,8.999999999999999e-08,0.0,0.0,0.0,8.999999999999999e-08
1532135166.7278225,4618,1532135166,727082864,base_link,-0.009554049187494347,-0.09173602782182261,-0.995180873499981,0.03329039446164456,1.0,0.0,0.0,0.0,1.0,0.0,0.0,0.0,1.0,0.22143809497356415,-0.037931658327579505,-0.05392635241150855,1.2184696791468346e-07,0.0,0.0,0.0,1.2184696791468346e-07,0.0,0.0,0.0,1.2184696791468346e-07,0.34323275,0.14709975000000117,9.5909037,8.999999999999999e-08,0.0,0.0,0.0,8.999999999999999e-08,0.0,0.0,0.0,8.999999999999999e-08
1532135167.035925,4619,1532135167,35650256,base_link,-0.014298815707799539,-0.13599479724048627,-0.990352715132039,0.02241558884954858,1.0,0.0,0.0,0.0,1.0,0.0,0.0,0.0,1.0,0.23673772811889648,-0.04397245496511461,-0.09890585392713547,1.2184696791468346e-07,0.0,0.0,0.0,1.2184696791468346e-07,0.0,0.0,0.0,1.2184696791468346e-07,0.30400615,0.6472389000000013,10.07142955,8.999999999999999e-08,0.0,0.0,0.0,8.999999999999999e-08,0.0,0.0,0.0,8.999999999999999e-08
1532135167.4367113,4620,1532135167,429903728,base_link,-0.013528863381125118,-0.18003709436475213,-0.9835016444493703,-0.011319446704518904,1.0,0.0,0.0,0.0,1.0,0.0,0.0,0.0,1.0,0.22333239018917084,-0.03362816572189334,-0.2383560985326767,1.2184696791468346e-07,0.0,0.0,0.0,1.2184696791468346e-07,0.0,0.0,0.0,1.2184696791468346e-07,0.2745862,0.5099458000000011,9.34573745,8.999999999999999e-08,0.0,0.0,0.0,8.999999999999999e-08,0.0,0.0,0.0,8.999999999999999e-08
1532135167.7896059,4621,1532135167,788895792,base_link,-0.019169883657565442,-0.21920539305925207,-0.9740391770881077,-0.053190156155215836,1.0,0.0,0.0,0.0,1.0,0.0,0.0,0.0,1.0,0.1920967549085617,-0.09913273900747302,-0.23725293576717377,1.2184696791468346e-07,0.0,0.0,0.0,1.2184696791468346e-07,0.0,0.0,0.0,1.2184696791468346e-07,0.3334261,0.38245935000000114,9.38496405,8.999999999999999e-08,0.0,0.0,0.0,8.999999999999999e-08,0.0,0.0,0.0,8.999999999999999e-08
1532135168.0968657,4622,1532135168,96345584,base_link,-0.03086706771105783,-0.25329682712516066,-0.9621690694319398,-0.09549148301142968,1.0,0.0,0.0,0.0,1.0,0.0,0.0,0.0,1.0,0.16803079843521118,-0.1413306146860123,-0.26942145824432373,1.2184696791468346e-07,0.0,0.0,0.0,1.2184696791468346e-07,0.0,0.0,0.0,1.2184696791468346e-07,0.4118793,0.4020726500000012,9.85568325,8.999999999999999e-08,0.0,0.0,0.0,8.999999999999999e-08,0.0,0.0,0.0,8.999999999999999e-08
1532135168.5301967,4623,1532135168,529875120,base_link,-0.05262030484926697,-0.26727811661713785,-0.9493864358736692,-0.15639343743986567,1.0,0.0,0.0,0.0,1.0,0.0,0.0,0.0,1.0,0.06111862137913704,-0.2060896456241608,-0.23509399592876432,1.2184696791468346e-07,0.0,0.0,0.0,1.2184696791468346e-07,0.0,0.0,0.0,1.2184696791468346e-07,0.5687857000000001,0.5785923500000013,10.8461549,8.999999999999999e-08,0.0,0.0,0.0,8.999999999999999e-08,0.0,0.0,0.0,8.999999999999999e-08
1532135168.8751662,4624,1532135168,874807280,base_link,-0.07671504417969835,-0.269576803031144,-0.9367120730178615,-0.20979428382726523,1.0,0.0,0.0,0.0,1.0,0.0,0.0,0.0,1.0,0.04734591394662857,-0.18871404230594638,-0.3080214262008667,1.2184696791468346e-07,0.0,0.0,0.0,1.2184696791468346e-07,0.0,0.0,0.0,1.2184696791468346e-07,0.6472389000000001,0.6962721500000014,11.3168741,8.999999999999999e-08,0.0,0.0,0.0,8.999999999999999e-08,0.0,0.0,0.0,8.999999999999999e-08
1532135169.3265893,4625,1532135169,326352048,base_link,-0.1145619096034194,-0.3125584225556012,-0.8960167902311459,-0.29383109600831386,1.0,0.0,0.0,0.0,1.0,0.0,0.0,0.0,1.0,0.2305067628622055,-0.24910484254360205,-0.36819720268249506,1.2184696791468346e-07,0.0,0.0,0.0,1.2184696791468346e-07,0.0,0.0,0.0,1.2184696791468346e-07,0.8433719,1.0002783000000013,10.7088618,8.999999999999999e-08,0.0,0.0,0.0,8.999999999999999e-08,0.0,0.0,0.0,8.999999999999999e-08
1532135169.7832694,4626,1532135169,781410736,base_link,-0.14616903261683303,-0.31028879121781977,-0.8503711183405983,-0.3990293736563806,1.0,0.0,0.0,0.0,1.0,0.0,0.0,0.0,1.0,-0.008426349610090256,-0.3390192091464997,-0.4913772344589233,1.2184696791468346e-07,0.0,0.0,0.0,1.2184696791468346e-07,0.0,0.0,0.0,1.2184696791468346e-07,0.9022118,0.7845320000000016,12.7290317,8.999999999999999e-08,0.0,0.0,0.0,8.999999999999999e-08,0.0,0.0,0.0,8.999999999999999e-08
1532135170.0849442,4627,1532135170,84381392,base_link,-0.17491861655255728,-0.30298407290605406,-0.8084606909734279,-0.47328156556046586,1.0,0.0,0.0,0.0,1.0,0.0,0.0,0.0,1.0,0.14456020295619965,-0.3839842081069947,-0.4241048097610473,1.2184696791468346e-07,0.0,0.0,0.0,1.2184696791468346e-07,0.0,0.0,0.0,1.2184696791468346e-07,0.7453054,0.39226600000000156,12.689805100000001,8.999999999999999e-08,0.0,0.0,0.0,8.999999999999999e-08,0.0,0.0,0.0,8.999999999999999e-08
1532135170.5151005,4628,1532135170,514852912,base_link,-0.23509267410095389,-0.2751446632288179,-0.7474985748139642,-0.5570213007882691,1.0,0.0,0.0,0.0,1.0,0.0,0.0,0.0,1.0,-0.15624012053012848,-0.45665994286537176,-0.2980205416679382,1.2184696791468346e-07,0.0,0.0,0.0,1.2184696791468346e-07,0.0,0.0,0.0,1.2184696791468346e-07,0.81395195,0.8041453000000017,13.17033095,8.999999999999999e-08,0.0,0.0,0.0,8.999999999999999e-08,0.0,0.0,0.0,8.999999999999999e-08
1532135170.9882007,4629,1532135170,987957936,base_link,-0.25417288497478446,-0.19392634971536543,-0.6924418837628964,-0.6467711751775587,1.0,0.0,0.0,0.0,1.0,0.0,0.0,0.0,1.0,-0.24027656018733978,-0.3535939753055573,-0.27151057124137873,1.2184696791468346e-07,0.0,0.0,0.0,1.2184696791468346e-07,0.0,0.0,0.0,1.2184696791468346e-07,1.02969825,0.5491724000000018,14.8276548,8.999999999999999e-08,0.0,0.0,0.0,8.999999999999999e-08,0.0,0.0,0.0,8.999999999999999e-08
1532135171.3493152,4630,1532135171,349063888,base_link,-0.21602564639445573,-0.09952032190940836,-0.6595870132545705,-0.7130032240970726,1.0,0.0,0.0,0.0,1.0,0.0,0.0,0.0,1.0,-0.5918598771095276,-0.20808216929435733,-0.2974628508090973,1.2184696791468346e-07,0.0,0.0,0.0,1.2184696791468346e-07,0.0,0.0,0.0,1.2184696791468346e-07,0.89240515,0.35303940000000156,12.7682583,8.999999999999999e-08,0.0,0.0,0.0,8.999999999999999e-08,0.0,0.0,0.0,8.999999999999999e-08
1532135171.7549787,4631,1532135171,754407440,base_link,-0.13833401472458096,-0.0005201724088982237,-0.6220374233369168,-0.7706704053998789,1.0,0.0,0.0,0.0,1.0,0.0,0.0,0.0,1.0,-0.5880664587020874,-0.09645923227071765,-0.19799907505512238,1.2184696791468346e-07,0.0,0.0,0.0,1.2184696791468346e-07,0.0,0.0,0.0,1.2184696791468346e-07,0.87279185,0.2843928500000014,11.73856005,8.999999999999999e-08,0.0,0.0,0.0,8.999999999999999e-08,0.0,0.0,0.0,8.999999999999999e-08
1532135172.0237145,4632,1532135172,23346544,base_link,-0.09478392300252061,0.044774918456318626,-0.6045694874260799,-0.7896245623654633,1.0,0.0,0.0,0.0,1.0,0.0,0.0,0.0,1.0,-0.37461212277412415,-0.04402015730738641,-0.0993485301733017,1.2184696791468346e-07,0.0,0.0,0.0,1.2184696791468346e-07,0.0,0.0,0.0,1.2184696791468346e-07,0.83356525,0.09806650000000135,10.895188150000001,8.999999999999999e-08,0.0,0.0,0.0,8.999999999999999e-08,0.0,0.0,0.0,8.999999999999999e-08
1532135172.4723387,4633,1532135172,470275760,base_link,-0.026997714113283916,0.10632728051677608,-0.6039427370086248,-0.7894420835407087,1.0,0.0,0.0,0.0,1.0,0.0,0.0,0.0,1.0,-0.4106973111629486,-0.005181357730180011,0.1115354374051094,1.2184696791468346e-07,0.0,0.0,0.0,1.2184696791468346e-07,0.0,0.0,0.0,1.2184696791468346e-07,0.95124505,-0.01961329999999882,9.639936950000001,8.999999999999999e-08,0.0,0.0,0.0,8.999999999999999e-08,0.0,0.0,0.0,8.999999999999999e-08
1532135172.817246,4634,1532135172,816065808,base_link,0.019800392672039497,0.13360081174180544,-0.6142128995447664,-0.7774968048711032,1.0,0.0,0.0,0.0,1.0,0.0,0.0,0.0,1.0,-0.20833805203437805,0.05098697170615198,0.14245153963565826,1.2184696791468346e-07,0.0,0.0,0.0,1.2184696791468346e-07,0.0,0.0,0.0,1.2184696791468346e-07,0.9414384,-0.08825984999999903,7.9433865,8.999999999999999e-08,0.0,0.0,0.0,8.999999999999999e-08,0.0,0.0,0.0,8.999999999999999e-08
1532135173.219213,4635,1532135173,214951824,base_link,0.05812559679000045,0.14977408491526284,-0.6400958857125909,-0.7513097866921578,1.0,0.0,0.0,0.0,1.0,0.0,0.0,0.0,1.0,-0.18188299238681793,0.011005369946360621,0.27317941188812256,1.2184696791468346e-07,0.0,0.0,0.0,1.2184696791468346e-07,0.0,0.0,0.0,1.2184696791468346e-07,1.5298374,-0.20593964999999895,8.6690786,8.999999999999999e-08,0.0,0.0,0.0,8.999999999999999e-08,0.0,0.0,0.0,8.999999999999999e-08
1532135173.6367834,4636,1532135173,636298000,base_link,0.07481517121079535,0.14494172988208484,-0.6916896782576429,-0.7035339182209529,1.0,0.0,0.0,0.0,1.0,0.0,0.0,0.0,1.0,0.1147594079375267,0.025839379057288208,0.315026193857193,1.2184696791468346e-07,0.0,0.0,0.0,1.2184696791468346e-07,0.0,0.0,0.0,1.2184696791468346e-07,1.46119085,0.39226600000000106,8.629852,8.999999999999999e-08,0.0,0.0,0.0,8.999999999999999e-08,0.0,0.0,0.0,8.999999999999999e-08
1532135174.1360784,4637,1532135174,135684688,base_link,0.06451198954054653,0.11084519228968004,-0.7303367051419452,-0.6709395231123233,1.0,0.0,0.0,0.0,1.0,0.0,0.0,0.0,1.0,0.28580963611602783,0.051244724541902556,0.12773677706718445,1.2184696791468346e-07,0.0,0.0,0.0,1.2184696791468346e-07,0.0,0.0,0.0,1.2184696791468346e-07,1.55925735,0.14709975000000106,8.6102387,8.999999999999999e-08,0.0,0.0,0.0,8.999999999999999e-08,0.0,0.0,0.0,8.999999999999999e-08
1532135174.4700751,4638,1532135174,469751984,base_link,0.03429711634328001,0.0710688948828277,-0.7519902643108987,-0.6544337723347521,1.0,0.0,0.0,0.0,1.0,0.0,0.0,0.0,1.0,0.3349088132381439,0.007119697518646737,0.1644485741853714,1.2184696791468346e-07,0.0,0.0,0.0,1.2184696791468346e-07,0.0,0.0,0.0,1.2184696791468346e-07,1.372931,0.3138128000000011,8.9044382,8.999999999999999e-08,0.0,0.0,0.0,8.999999999999999e-08,0.0,0.0,0.0,8.999999999999999e-08
1532135174.9362998,4639,1532135174,932377648,base_link,-0.025652297486587317,0.007809918588540605,-0.7779411129077153,-0.6277647566192335,1.0,0.0,0.0,0.0,1.0,0.0,0.0,0.0,1.0,0.30188193917274475,-0.03648166730999945,0.13282069563865662,1.2184696791468346e-07,0.0,0.0,0.0,1.2184696791468346e-07,0.0,0.0,0.0,1.2184696791468346e-07,1.8240369,0.28439285000000136,11.0030613,8.999999999999999e-08,0.0,0.0,0.0,8.999999999999999e-08,0.0,0.0,0.0,8.999999999999999e-08
1532135175.3322468,4640,1532135175,331891504,base_link,-0.05511179623392417,-0.019353671912352606,-0.7872941821992936,-0.6138045258667658,1.0,0.0,0.0,0.0,1.0,0.0,0.0,0.0,1.0,0.1955152302980423,-0.0035930220037698776,-0.023569107055664062,1.2184696791468346e-07,0.0,0.0,0.0,1.2184696791468346e-07,0.0,0.0,0.0,1.2184696791468346e-07,1.3533177,0.6276256000000012,10.1204628,8.999999999999999e-08,0.0,0.0,0.0,8.999999999999999e-08,0.0,0.0,0.0,8.999999999999999e-08
1532135175.732138,4641,1532135175,731683216,base_link,-0.08749258405372706,-0.05512490251106745,-0.7743766527227813,-0.6242171838203493,1.0,0.0,0.0,0.0,1.0,0.0,0.0,0.0,1.0,0.16308489441871643,-0.011679500341415424,-0.1575096845626831,1.2184696791468346e-07,0.0,0.0,0.0,1.2184696791468346e-07,0.0,0.0,0.0,1.2184696791468346e-07,1.04931155,0.6766588500000011,9.551677100000001,8.999999999999999e-08,0.0,0.0,0.0,8.999999999999999e-08,0.0,0.0,0.0,8.999999999999999e-08
1532135176.2182508,4642,1532135176,217997136,base_link,-0.10484703934176973,-0.06911731421613392,-0.7460669138863706,-0.6539220559217134,1.0,0.0,0.0,0.0,1.0,0.0,0.0,0.0,1.0,0.03212793171405792,-0.06411307305097581,-0.15052494406700134,1.2184696791468346e-07,0.0,0.0,0.0,1.2184696791468346e-07,0.0,0.0,0.0,1.2184696791468346e-07,1.1964113,0.5001391500000013,10.4735022,8.999999999999999e-08,0.0,0.0,0.0,8.999999999999999e-08,0.0,0.0,0.0,8.999999999999999e-08
1532135176.6193848,4643,1532135176,618969168,base_link,-0.10735896229218017,-0.05639275376492421,-0.7281844848565338,-0.6745674662719657,1.0,0.0,0.0,0.0,1.0,0.0,0.0,0.0,1.0,-0.08804766088724136,-0.04731491953134538,-0.13028235733509064,1.2184696791468346e-07,0.0,0.0,0.0,1.2184696791468346e-07,0.0,0.0,0.0,1.2184696791468346e-07,1.24544455,0.4511059000000013,10.2381426,8.999999999999999e-08,0.0,0.0,0.0,8.999999999999999e-08,0.0,0.0,0.0,8.999999999999999e-08
1532135177.1301994,4644,1532135177,125038128,base_link,-0.10876751269178553,-0.04308701419279085,-0.7033782828230607,-0.7011220497485977,1.0,0.0,0.0,0.0,1.0,0.0,0.0,0.0,1.0,-0.12698908150196075,-0.05727592855691911,-0.11318625509738921,1.2184696791468346e-07,0.0,0.0,0.0,1.2184696791468346e-07,0.0,0.0,0.0,1.2184696791468346e-07,1.18660465,0.36284605000000125,10.0223963,8.999999999999999e-08,0.0,0.0,0.0,8.999999999999999e-08,0.0,0.0,0.0,8.999999999999999e-08
1532135177.431568,4645,1532135177,431198128,base_link,-0.09479772497722519,-0.01879934255515576,-0.6932514537727205,-0.7141865287868749,1.0,0.0,0.0,0.0,1.0,0.0,0.0,0.0,1.0,-0.1721334457397461,-0.05681724473834039,-0.08705416321754454,1.2184696791468346e-07,0.0,0.0,0.0,1.2184696791468346e-07,0.0,0.0,0.0,1.2184696791468346e-07,1.18660465,0.3530394000000013,10.2969825,8.999999999999999e-08,0.0,0.0,0.0,8.999999999999999e-08,0.0,0.0,0.0,8.999999999999999e-08
1532135177.7573316,4646,1532135177,757029200,base_link,-0.08426154104010326,0.004653397188386504,-0.6859888394324314,-0.7227016332971029,1.0,0.0,0.0,0.0,1.0,0.0,0.0,0.0,1.0,-0.1268671452999115,-0.0643492117524147,-0.01749532669782638,1.2184696791468346e-07,0.0,0.0,0.0,1.2184696791468346e-07,0.0,0.0,0.0,1.2184696791468346e-07,1.3337044,0.4216859500000014,11.11093445,8.999999999999999e-08,0.0,0.0,0.0,8.999999999999999e-08,0.0,0.0,0.0,8.999999999999999e-08
1532135178.2685509,4647,1532135178,268040304,base_link,-0.049478704677431526,0.03979217014567151,-0.6749034737007417,-0.735169192883661,1.0,0.0,0.0,0.0,1.0,0.0,0.0,0.0,1.0,-0.21030639111995697,0.055502131581306444,-0.1306094527244568,1.2184696791468346e-07,0.0,0.0,0.0,1.2184696791468346e-07,0.0,0.0,0.0,1.2184696791468346e-07,1.04931155,0.6766588500000011,9.639936950000001,8.999999999999999e-08,0.0,0.0,0.0,8.999999999999999e-08,0.0,0.0,0.0,8.999999999999999e-08
1532135178.7204223,4648,1532135178,720081232,base_link,-0.017335796219483193,0.053645942123434764,-0.6589482317037907,-0.7500725371572892,1.0,0.0,0.0,0.0,1.0,0.0,0.0,0.0,1.0,-0.05920103192329407,0.030997406691312786,-0.032740984112024314,1.2184696791468346e-07,0.0,0.0,0.0,1.2184696791468346e-07,0.0,0.0,0.0,1.2184696791468346e-07,1.2160246,-0.00980664999999884,9.4732239,8.999999999999999e-08,0.0,0.0,0.0,8.999999999999999e-08,0.0,0.0,0.0,8.999999999999999e-08
1532135179.1556666,4649,1532135179,155359536,base_link,-0.006144008599287882,0.05832564698771607,-0.669516457917526,-0.7404782796540124,1.0,0.0,0.0,0.0,1.0,0.0,0.0,0.0,1.0,-0.02584100142121315,0.014909364283084883,0.11492801457643509,1.2184696791468346e-07,0.0,0.0,0.0,1.2184696791468346e-07,0.0,0.0,0.0,1.2184696791468346e-07,1.30428445,0.12748645000000114,9.30651085,8.999999999999999e-08,0.0,0.0,0.0,8.999999999999999e-08,0.0,0.0,0.0,8.999999999999999e-08
1532135179.634409,4650,1532135179,634105936,base_link,0.00012526311733619834,0.06466888920923837,-0.6980769804217666,-0.7130963809211369,1.0,0.0,0.0,0.0,1.0,0.0,0.0,0.0,1.0,-0.0187142975628376,-0.0072118630632757915,0.18517549335956573,1.2184696791468346e-07,0.0,0.0,0.0,1.2184696791468346e-07,0.0,0.0,0.0,1.2184696791468346e-07,1.1179581,0.27458620000000117,9.5909037,8.999999999999999e-08,0.0,0.0,0.0,8.999999999999999e-08,0.0,0.0,0.0,8.999999999999999e-08
1532135179.9486785,4651,1532135179,946519408,base_link,0.005886629088108117,0.06857759750440943,-0.7160280662795789,-0.6946698993179634,1.0,0.0,0.0,0.0,1.0,0.0,0.0,0.0,1.0,-0.05147361382842064,0.012412128970026984,0.11929767578840256,1.2184696791468346e-07,0.0,0.0,0.0,1.2184696791468346e-07,0.0,0.0,0.0,1.2184696791468346e-07,1.2552512,0.4805258500000012,9.62032365,8.999999999999999e-08,0.0,0.0,0.0,8.999999999999999e-08,0.0,0.0,0.0,8.999999999999999e-08
1532135180.267759,4652,1532135180,266755568,base_link,0.007125467999042045,0.06556877925641401,-0.7234944821953632,-0.6871722470570838,1.0,0.0,0.0,0.0,1.0,0.0,0.0,0.0,1.0,0.17358045279979706,0.024896455928683284,0.025857571512460705,1.2184696791468346e-07,0.0,0.0,0.0,1.2184696791468346e-07,0.0,0.0,0.0,1.2184696791468346e-07,1.16699135,0.41187930000000117,9.50264385,8.999999999999999e-08,0.0,0.0,0.0,8.999999999999999e-08,0.0,0.0,0.0,8.999999999999999e-08
1532135180.6793728,4653,1532135180,678860400,base_link,-0.039458721932164126,0.007207314604114122,-0.7288428903092475,-0.6835050147038715,1.0,0.0,0.0,0.0,1.0,0.0,0.0,0.0,1.0,0.34093451499938965,0.029602177441120148,0.0040533449500799144,1.2184696791468346e-07,0.0,0.0,0.0,1.2184696791468346e-07,0.0,0.0,0.0,1.2184696791468346e-07,1.1179581,0.43149260000000106,8.6102387,8.999999999999999e-08,0.0,0.0,0.0,8.999999999999999e-08,0.0,0.0,0.0,8.999999999999999e-08
1532135181.0389342,4654,1532135181,38679600,base_link,-0.07602582305366212,-0.03705788977225642,-0.7244563012075965,-0.6841124576231956,1.0,0.0,0.0,0.0,1.0,0.0,0.0,0.0,1.0,0.36061203479766846,0.004423353355377902,-0.08573248982429504,1.2184696791468346e-07,0.0,0.0,0.0,1.2184696791468346e-07,0.0,0.0,0.0,1.2184696791468346e-07,1.2552512,0.6374322500000011,9.44380395,8.999999999999999e-08,0.0,0.0,0.0,8.999999999999999e-08,0.0,0.0,0.0,8.999999999999999e-08
1532135181.4701006,4655,1532135181,469785936,base_link,-0.14332545044716508,-0.11298578649242223,-0.6933064092187261,-0.697150091616606,1.0,0.0,0.0,0.0,1.0,0.0,0.0,0.0,1.0,0.3422659635543823,-0.02140244841575625,-0.18565963208675385,1.2184696791468346e-07,0.0,0.0,0.0,1.2184696791468346e-07,0.0,0.0,0.0,1.2184696791468346e-07,1.36312435,0.6374322500000011,9.2574776,8.999999999999999e-08,0.0,0.0,0.0,8.999999999999999e-08,0.0,0.0,0.0,8.999999999999999e-08
1532135181.7307944,4656,1532135181,730365136,base_link,-0.17370544234119056,-0.14107544616097184,-0.6676506178614616,-0.7100470338370143,1.0,0.0,0.0,0.0,1.0,0.0,0.0,0.0,1.0,0.26016825437545776,-0.08361401408910754,-0.2303575575351715,1.2184696791468346e-07,0.0,0.0,0.0,1.2184696791468346e-07,0.0,0.0,0.0,1.2184696791468346e-07,1.34351105,0.5785923500000012,9.95374975,8.999999999999999e-08,0.0,0.0,0.0,8.999999999999999e-08,0.0,0.0,0.0,8.999999999999999e-08
1532135182.1252108,4657,1532135182,124503184,base_link,-0.19428633834229758,-0.15155493904924291,-0.6297228505068857,-0.736704181291789,1.0,0.0,0.0,0.0,1.0,0.0,0.0,0.0,1.0,-0.018697381019592285,-0.07368545234203341,-0.2819579541683197,1.2184696791468346e-07,0.0,0.0,0.0,1.2184696791468346e-07,0.0,0.0,0.0,1.2184696791468346e-07,1.176798,0.676658850000001,8.384685750000001,8.999999999999999e-08,0.0,0.0,0.0,8.999999999999999e-08,0.0,0.0,0.0,8.999999999999999e-08
1532135182.454372,4658,1532135182,453902512,base_link,-0.21908302522001072,-0.1616422917837184,-0.5752520067566294,-0.7713361953712701,1.0,0.0,0.0,0.0,1.0,0.0,0.0,0.0,1.0,0.2105533331632614,-0.16610834002494818,-0.34580618143081665,1.2184696791468346e-07,0.0,0.0,0.0,1.2184696791468346e-07,0.0,0.0,0.0,1.2184696791468346e-07,1.0002783,0.5491724000000012,9.463417250000001,8.999999999999999e-08,0.0,0.0,0.0,8.999999999999999e-08,0.0,0.0,0.0,8.999999999999999e-08
1532135182.8229408,4659,1532135182,822689904,base_link,-0.2758304042543948,-0.16477159170185454,-0.5066288926508891,-0.8000594201609204,1.0,0.0,0.0,0.0,1.0,0.0,0.0,0.0,1.0,0.1599889099597931,-0.3183737993240357,-0.3183527588844299,1.2184696791468346e-07,0.0,0.0,0.0,1.2184696791468346e-07,0.0,0.0,0.0,1.2184696791468346e-07,1.44157755,0.5001391500000014,11.7483667,8.999999999999999e-08,0.0,0.0,0.0,8.999999999999999e-08,0.0,0.0,0.0,8.999999999999999e-08
1532135183.2501373,4660,1532135183,249869328,base_link,-0.3198431806145923,-0.12825240459865675,-0.432656257292541,-0.8331027689034614,1.0,0.0,0.0,0.0,1.0,0.0,0.0,0.0,1.0,-0.006049261428415775,-0.3527005314826966,-0.2909443378448486,1.2184696791468346e-07,0.0,0.0,0.0,1.2184696791468346e-07,0.0,0.0,0.0,1.2184696791468346e-07,1.46119085,1.0787315000000015,12.0425662,8.999999999999999e-08,0.0,0.0,0.0,8.999999999999999e-08,0.0,0.0,0.0,8.999999999999999e-08
1532135183.637688,4661,1532135183,636569104,base_link,-0.34420665294607006,-0.0957061763161224,-0.35133905820016376,-0.865403359171683,1.0,0.0,0.0,0.0,1.0,0.0,0.0,0.0,1.0,0.06095052510499954,-0.3658458292484284,-0.395037829875946,1.2184696791468346e-07,0.0,0.0,0.0,1.2184696791468346e-07,0.0,0.0,0.0,1.2184696791468346e-07,1.6671305,0.8433719000000014,11.9248864,8.999999999999999e-08,0.0,0.0,0.0,8.999999999999999e-08,0.0,0.0,0.0,8.999999999999999e-08
1532135184.0649593,4662,1532135184,60329936,base_link,-0.357739897339209,-0.04879577764004901,-0.25304884551026907,-0.8975563601925813,1.0,0.0,0.0,0.0,1.0,0.0,0.0,0.0,1.0,-0.18505744636058807,-0.35373938083648687,-0.347852736711502,1.2184696791468346e-07,0.0,0.0,0.0,1.2184696791468346e-07,0.0,0.0,0.0,1.2184696791468346e-07,1.89268345,0.6864655000000015,12.79767825,8.999999999999999e-08,0.0,0.0,0.0,8.999999999999999e-08,0.0,0.0,0.0,8.999999999999999e-08
1532135184.4438877,4663,1532135184,443701616,base_link,-0.32191987370625513,0.006853714615914119,-0.16424924973691502,-0.9323855455066712,1.0,0.0,0.0,0.0,1.0,0.0,0.0,0.0,1.0,-0.20709358155727386,-0.3548309206962586,-0.3499018251895904,1.2184696791468346e-07,0.0,0.0,0.0,1.2184696791468346e-07,0.0,0.0,0.0,1.2184696791468346e-07,1.9809433,0.5883990000000017,13.60182355,8.999999999999999e-08,0.0,0.0,0.0,8.999999999999999e-08,0.0,0.0,0.0,8.999999999999999e-08
1532135184.8493118,4664,1532135184,848257136,base_link,-0.291814254473343,0.05877361443498016,-0.08141600688945572,-0.9511895378706556,1.0,0.0,0.0,0.0,1.0,0.0,0.0,0.0,1.0,-0.32163122296333313,-0.3195585906505585,-0.32991781830787653,1.2184696791468346e-07,0.0,0.0,0.0,1.2184696791468346e-07,0.0,0.0,0.0,1.2184696791468346e-07,1.8240369,1.382737650000002,14.99436785,8.999999999999999e-08,0.0,0.0,0.0,8.999999999999999e-08,0.0,0.0,0.0,8.999999999999999e-08
1532135185.2367737,4665,1532135185,235764400,base_link,-0.22832939571861374,0.08966679435212373,-0.0012957531671232093,-0.9694451372125792,1.0,0.0,0.0,0.0,1.0,0.0,0.0,0.0,1.0,-0.4798095226287842,-0.23141136765480044,-0.27766856551170344,1.2184696791468346e-07,0.0,0.0,0.0,1.2184696791468346e-07,0.0,0.0,0.0,1.2184696791468346e-07,1.44157755,0.5197524500000016,12.9055514,8.999999999999999e-08,0.0,0.0,0.0,8.999999999999999e-08,0.0,0.0,0.0,8.999999999999999e-08
1532135185.6030848,4666,1532135185,602841296,base_link,-0.15756100263342912,0.11743819722353745,0.0467354152271351,-0.9793868496388858,1.0,0.0,0.0,0.0,1.0,0.0,0.0,0.0,1.0,-0.340439110994339,-0.163056954741478,-0.13853800296783444,1.2184696791468346e-07,0.0,0.0,0.0,1.2184696791468346e-07,0.0,0.0,0.0,1.2184696791468346e-07,1.1571847,0.18632635000000136,11.0815145,8.999999999999999e-08,0.0,0.0,0.0,8.999999999999999e-08,0.0,0.0,0.0,8.999999999999999e-08
1532135185.921825,4667,1532135185,916779056,base_link,-0.08087000421165853,0.13054584866644556,0.07371937282988895,-0.9853848374540435,1.0,0.0,0.0,0.0,1.0,0.0,0.0,0.0,1.0,-0.5682352781295776,-0.061947517096996314,-0.047386579215526574,1.2184696791468346e-07,0.0,0.0,0.0,1.2184696791468346e-07,0.0,0.0,0.0,1.2184696791468346e-07,1.14737805,0.5001391500000014,11.71894675,8.999999999999999e-08,0.0,0.0,0.0,8.999999999999999e-08,0.0,0.0,0.0,8.999999999999999e-08
1532135186.375278,4668,1532135186,374946288,base_link,0.027597138233608185,0.12070550766104521,0.09248161033408632,-0.9879856932828627,1.0,0.0,0.0,0.0,1.0,0.0,0.0,0.0,1.0,-0.38263145089149475,0.039222385734319694,0.036822259426116936,1.2184696791468346e-07,0.0,0.0,0.0,1.2184696791468346e-07,0.0,0.0,0.0,1.2184696791468346e-07,1.1571847,0.2843928500000012,9.8262633,8.999999999999999e-08,0.0,0.0,0.0,8.999999999999999e-08,0.0,0.0,0.0,8.999999999999999e-08
1532135186.7750351,4669,1532135186,774492080,base_link,0.07329418298934172,0.09997807511734665,0.09089619143344663,-0.9881144820407446,1.0,0.0,0.0,0.0,1.0,0.0,0.0,0.0,1.0,-0.21440677344799042,0.11448805034160615,0.09022101759910582,1.2184696791468346e-07,0.0,0.0,0.0,1.2184696791468346e-07,0.0,0.0,0.0,1.2184696791468346e-07,1.1179581,0.176519700000001,8.3552658,8.999999999999999e-08,0.0,0.0,0.0,8.999999999999999e-08,0.0,0.0,0.0,8.999999999999999e-08
1532135187.0758457,4670,1532135187,75354160,base_link,0.10653333471398078,0.08100089839057431,0.07506541909517916,-0.9881572172031656,1.0,0.0,0.0,0.0,1.0,0.0,0.0,0.0,1.0,-0.1719941943883896,0.0841607227921486,0.16683778166770935,1.2184696791468346e-07,0.0,0.0,0.0,1.2184696791468346e-07,0.0,0.0,0.0,1.2184696791468346e-07,1.55925735,-0.08825984999999904,7.7668668,8.999999999999999e-08,0.0,0.0,0.0,8.999999999999999e-08,0.0,0.0,0.0,8.999999999999999e-08
1532135187.540998,4671,1532135187,540736528,base_link,0.09552392170187071,0.05300755050647249,0.028167308531185712,-0.9936156111404991,1.0,0.0,0.0,0.0,1.0,0.0,0.0,0.0,1.0,0.14986295998096466,0.1166636869311333,0.25324663519859314,1.2184696791468346e-07,0.0,0.0,0.0,1.2184696791468346e-07,0.0,0.0,0.0,1.2184696791468346e-07,1.83384355,0.009806650000000952,7.77667345,8.999999999999999e-08,0.0,0.0,0.0,8.999999999999999e-08,0.0,0.0,0.0,8.999999999999999e-08
1532135187.968857,4672,1532135187,968525072,base_link,0.0702684317314902,0.029686092690177985,-0.009507920475764207,-0.9970409634769344,1.0,0.0,0.0,0.0,1.0,0.0,0.0,0.0,1.0,0.31893137097358704,0.06791941821575166,0.08286722004413603,1.2184696791468346e-07,0.0,0.0,0.0,1.2184696791468346e-07,0.0,0.0,0.0,1.2184696791468346e-07,1.77500365,0.372652700000001,7.73744685,8.999999999999999e-08,0.0,0.0,0.0,8.999999999999999e-08,0.0,0.0,0.0,8.999999999999999e-08
1532135188.3329058,4673,1532135188,332076112,base_link,0.01356097780636412,0.017439272833933536,-0.026115805883002774,-0.9994147969322049,1.0,0.0,0.0,0.0,1.0,0.0,0.0,0.0,1.0,0.20643189549446106,0.04811507463455201,0.05323623493313789,1.2184696791468346e-07,0.0,0.0,0.0,1.2184696791468346e-07,0.0,0.0,0.0,1.2184696791468346e-07,1.57887065,0.40207265000000114,9.2770909,8.999999999999999e-08,0.0,0.0,0.0,8.999999999999999e-08,0.0,0.0,0.0,8.999999999999999e-08
1532135188.7957513,4674,1532135188,795229584,base_link,-0.034833169607260475,0.013238827999585886,-0.03136835823764356,-0.9988130004309036,1.0,0.0,0.0,0.0,1.0,0.0,0.0,0.0,1.0,0.3530789911746979,-0.005662691779434688,-0.053912870585918427,1.2184696791468346e-07,0.0,0.0,0.0,1.2184696791468346e-07,0.0,0.0,0.0,1.2184696791468346e-07,1.4513842000000001,0.5687857000000013,10.2773692,8.999999999999999e-08,0.0,0.0,0.0,8.999999999999999e-08,0.0,0.0,0.0,8.999999999999999e-08
1532135189.230142,4675,1532135189,228155376,base_link,-0.07634865700817099,0.0160373359319764,-0.01155987737952041,-0.9968851767702357,1.0,0.0,0.0,0.0,1.0,0.0,0.0,0.0,1.0,0.06157439947128296,-0.06945947557687761,-0.10264347493648528,1.2184696791468346e-07,0.0,0.0,0.0,1.2184696791468346e-07,0.0,0.0,0.0,1.2184696791468346e-07,1.16699135,0.5393657500000013,10.73828175,8.999999999999999e-08,0.0,0.0,0.0,8.999999999999999e-08,0.0,0.0,0.0,8.999999999999999e-08
1532135189.5663157,4676,1532135189,565717168,base_link,-0.0964571522934094,0.026387023275723856,0.0018591096624002727,-0.9949855709935473,1.0,0.0,0.0,0.0,1.0,0.0,0.0,0.0,1.0,0.21560944616794586,-0.10270292311906815,-0.0492260381579399,1.2184696791468346e-07,0.0,0.0,0.0,1.2184696791468346e-07,0.0,0.0,0.0,1.2184696791468346e-07,0.95124505,0.2059396500000012,9.6889702,8.999999999999999e-08,0.0,0.0,0.0,8.999999999999999e-08,0.0,0.0,0.0,8.999999999999999e-08
1532135189.9899218,4677,1532135189,988887184,base_link,-0.11607510605559582,0.03933821757865813,0.02125577591732714,-0.9922334737258509,1.0,0.0,0.0,0.0,1.0,0.0,0.0,0.0,1.0,-0.1501304656267166,-0.07273100316524507,-0.13750514388084412,1.2184696791468346e-07,0.0,0.0,0.0,1.2184696791468346e-07,0.0,0.0,0.0,1.2184696791468346e-07,1.10815145,0.5491724000000012,10.267562550000001,8.999999999999999e-08,0.0,0.0,0.0,8.999999999999999e-08,0.0,0.0,0.0,8.999999999999999e-08
1532135190.2928252,4678,1532135190,292506832,base_link,-0.08913835621158052,0.043458349651787936,0.03895211657529912,-0.9943080296928837,1.0,0.0,0.0,0.0,1.0,0.0,0.0,0.0,1.0,-0.22196507453918457,-0.02187756635248662,-0.08342618495225906,1.2184696791468346e-07,0.0,0.0,0.0,1.2184696791468346e-07,0.0,0.0,0.0,1.2184696791468346e-07,1.2552512,0.33342610000000134,11.0619012,8.999999999999999e-08,0.0,0.0,0.0,8.999999999999999e-08,0.0,0.0,0.0,8.999999999999999e-08
1532135190.7971163,4679,1532135190,796815376,base_link,-0.04033175627719053,0.04392247710446786,0.04739379885993583,-0.9970947764732443,1.0,0.0,0.0,0.0,1.0,0.0,0.0,0.0,1.0,-0.1591927707195282,-0.00862587336450815,0.016676554456353188,1.2184696791468346e-07,0.0,0.0,0.0,1.2184696791468346e-07,0.0,0.0,0.0,1.2184696791468346e-07,1.06892485,0.3530394000000013,10.16949605,8.999999999999999e-08,0.0,0.0,0.0,8.999999999999999e-08,0.0,0.0,0.0,8.999999999999999e-08
1532135191.2104487,4680,1532135191,210065616,base_link,-0.019146468723587034,0.03528869314627852,0.0400342742220548,-0.9983913950745759,1.0,0.0,0.0,0.0,1.0,0.0,0.0,0.0,1.0,-0.14089317619800568,0.07278279215097427,0.03920128941535949,1.2184696791468346e-07,0.0,0.0,0.0,1.2184696791468346e-07,0.0,0.0,0.0,1.2184696791468346e-07,1.08853815,0.5295591000000012,9.24767095,8.999999999999999e-08,0.0,0.0,0.0,8.999999999999999e-08,0.0,0.0,0.0,8.999999999999999e-08
1532135191.5313177,4681,1532135191,530999152,base_link,-0.0033822535166959174,0.019046638610619594,0.04365745265744109,-0.998859255724373,1.0,0.0,0.0,0.0,1.0,0.0,0.0,0.0,1.0,0.009602073580026627,0.10200010985136031,-0.057236175984144225,1.2184696791468346e-07,0.0,0.0,0.0,1.2184696791468346e-07,0.0,0.0,0.0,1.2184696791468346e-07,1.1375714000000001,0.470719200000001,7.87473995,8.999999999999999e-08,0.0,0.0,0.0,8.999999999999999e-08,0.0,0.0,0.0,8.999999999999999e-08
1532135191.9501483,4682,1532135191,949836880,base_link,-0.015610319045912249,0.0010677205757867333,0.06250798867674279,-0.9979218051849779,1.0,0.0,0.0,0.0,1.0,0.0,0.0,0.0,1.0,0.08789446949958801,0.07009481638669966,-0.07753039896488191,1.2184696791468346e-07,0.0,0.0,0.0,1.2184696791468346e-07,0.0,0.0,0.0,1.2184696791468346e-07,0.980665,0.245166250000001,8.32584585,8.999999999999999e-08,0.0,0.0,0.0,8.999999999999999e-08,0.0,0.0,0.0,8.999999999999999e-08
1532135192.3710966,4683,1532135192,370799248,base_link,-0.011166743086724357,-0.006759671067072543,0.06691347220227417,-0.9976733924154413,1.0,0.0,0.0,0.0,1.0,0.0,0.0,0.0,1.0,-0.08723794668912888,-0.0015099266311153754,0.0129426633939147,1.2184696791468346e-07,0.0,0.0,0.0,1.2184696791468346e-07,0.0,0.0,0.0,1.2184696791468346e-07,0.99047165,-0.009806649999999029,7.9433865,8.999999999999999e-08,0.0,0.0,0.0,8.999999999999999e-08,0.0,0.0,0.0,8.999999999999999e-08
1532135192.7511125,4684,1532135192,750774608,base_link,-0.003180825199774766,-0.004313346673924292,0.05820259607940892,-0.9982904062451647,1.0,0.0,0.0,0.0,1.0,0.0,0.0,0.0,1.0,-0.1386151909828186,-0.01172587275505066,-0.0019125302787870154,1.2184696791468346e-07,0.0,0.0,0.0,1.2184696791468346e-07,0.0,0.0,0.0,1.2184696791468346e-07,1.2944778000000001,0.7256921000000013,9.99297635,8.999999999999999e-08,0.0,0.0,0.0,8.999999999999999e-08,0.0,0.0,0.0,8.999999999999999e-08
1532135193.246616,4685,1532135193,246284016,base_link,-0.009760936547512826,0.007929781845778475,0.07920230879509038,-0.9967792318056796,1.0,0.0,0.0,0.0,1.0,0.0,0.0,0.0,1.0,0.20256085693836212,-0.09432539343833923,-0.05593780800700186,1.2184696791468346e-07,0.0,0.0,0.0,1.2184696791468346e-07,0.0,0.0,0.0,1.2184696791468346e-07,0.9414384,0.11767980000000135,10.9442214,8.999999999999999e-08,0.0,0.0,0.0,8.999999999999999e-08,0.0,0.0,0.0,8.999999999999999e-08
1532135193.5778496,4686,1532135193,577363632,base_link,-0.028328565606219186,0.02651000182702243,0.07572359673914664,-0.9963737496896996,1.0,0.0,0.0,0.0,1.0,0.0,0.0,0.0,1.0,0.018327491357922554,-0.10465433448553085,0.055072918534278884,1.2184696791468346e-07,0.0,0.0,0.0,1.2184696791468346e-07,0.0,0.0,0.0,1.2184696791468346e-07,0.71588545,0.29419950000000133,11.22861425,8.999999999999999e-08,0.0,0.0,0.0,8.999999999999999e-08,0.0,0.0,0.0,8.999999999999999e-08
1532135193.9139326,4687,1532135193,913485488,base_link,-0.008642576316900012,0.04038313807605521,0.07007997501671759,-0.9966861618059082,1.0,0.0,0.0,0.0,1.0,0.0,0.0,0.0,1.0,-0.15518757700920105,-0.0413510873913765,-0.03123623505234718,1.2184696791468346e-07,0.0,0.0,0.0,1.2184696791468346e-07,0.0,0.0,0.0,1.2184696791468346e-07,0.6668522,0.7354987500000014,11.375714,8.999999999999999e-08,0.0,0.0,0.0,8.999999999999999e-08,0.0,0.0,0.0,8.999999999999999e-08
1532135194.386777,4688,1532135194,386189968,base_link,-0.025576125333685182,0.0468155726256051,0.08459124592079453,-0.9949866758335109,1.0,0.0,0.0,0.0,1.0,0.0,0.0,0.0,1.0,0.07082956284284592,-0.01060446724295617,-0.0734953060746193,1.2184696791468346e-07,0.0,0.0,0.0,1.2184696791468346e-07,0.0,0.0,0.0,1.2184696791468346e-07,0.46091255,0.27458620000000106,8.4729456,8.999999999999999e-08,0.0,0.0,0.0,8.999999999999999e-08,0.0,0.0,0.0,8.999999999999999e-08
1532135194.873612,4689,1532135194,873177968,base_link,-0.05676748872546492,0.053570519216588314,0.09469320028220884,-0.9924418620327253,1.0,0.0,0.0,0.0,1.0,0.0,0.0,0.0,1.0,-0.07599872350692749,0.016676407307386395,-0.026346890255808834,1.2184696791468346e-07,0.0,0.0,0.0,1.2184696791468346e-07,0.0,0.0,0.0,1.2184696791468346e-07,0.67665885,0.2647795500000011,8.95347145,8.999999999999999e-08,0.0,0.0,0.0,8.999999999999999e-08,0.0,0.0,0.0,8.999999999999999e-08
1532135195.271237,4690,1532135195,270509328,base_link,-0.032606088887244186,0.04596317033249842,0.09899804386401961,-0.9934906226289004,1.0,0.0,0.0,0.0,1.0,0.0,0.0,0.0,1.0,-0.13647596538066864,0.02656969614326954,-0.008431252092123035,1.2184696791468346e-07,0.0,0.0,0.0,1.2184696791468346e-07,0.0,0.0,0.0,1.2184696791468346e-07,1.0198916,0.21574630000000114,9.4928372,8.999999999999999e-08,0.0,0.0,0.0,8.999999999999999e-08,0.0,0.0,0.0,8.999999999999999e-08
1532135195.7550087,4691,1532135195,754652624,base_link,0.006288928307304527,0.04180756654683994,0.09766240562609085,-0.9943211912091093,1.0,0.0,0.0,0.0,1.0,0.0,0.0,0.0,1.0,-0.12761235237121582,0.019838636741042137,0.002369693480432031,1.2184696791468346e-07,0.0,0.0,0.0,1.2184696791468346e-07,0.0,0.0,0.0,1.2184696791468346e-07,1.0591182,0.16671305000000122,9.9047165,8.999999999999999e-08,0.0,0.0,0.0,8.999999999999999e-08,0.0,0.0,0.0,8.999999999999999e-08
1532135196.1420615,4692,1532135196,141670160,base_link,0.018203725858666718,0.032762778312840385,0.09186825018062084,-0.9950655502683414,1.0,0.0,0.0,0.0,1.0,0.0,0.0,0.0,1.0,-0.060598719865083694,0.06986741721630096,0.04415766522288322,1.2184696791468346e-07,0.0,0.0,0.0,1.2184696791468346e-07,0.0,0.0,0.0,1.2184696791468346e-07,0.4707192,0.0686465500000012,9.7674234,8.999999999999999e-08,0.0,0.0,0.0,8.999999999999999e-08,0.0,0.0,0.0,8.999999999999999e-08
1532135196.5658696,4693,1532135196,564809904,base_link,0.008662851316600663,0.006766929773705698,0.0773255893641574,-0.9969452928310512,1.0,0.0,0.0,0.0,1.0,0.0,0.0,0.0,1.0,-0.023788411170244217,0.17952296137809753,0.06892926990985868,1.2184696791468346e-07,0.0,0.0,0.0,1.2184696791468346e-07,0.0,0.0,0.0,1.2184696791468346e-07,-0.1372931,-0.3824593499999991,7.50208725,8.999999999999999e-08,0.0,0.0,0.0,8.999999999999999e-08,0.0,0.0,0.0,8.999999999999999e-08
1532135197.0455496,4694,1532135197,45224336,base_link,0.002701577574959116,-0.04886927164624371,0.07278316651019223,-0.99614612705171,1.0,0.0,0.0,0.0,1.0,0.0,0.0,0.0,1.0,-0.04037218540906906,0.2551306486129761,-0.06812288612127307,1.2184696791468346e-07,0.0,0.0,0.0,1.2184696791468346e-07,0.0,0.0,0.0,1.2184696791468346e-07,-0.4707192,-0.0980664999999992,6.472389,8.999999999999999e-08,0.0,0.0,0.0,8.999999999999999e-08,0.0,0.0,0.0,8.999999999999999e-08
1532135197.4714067,4695,1532135197,468909680,base_link,-0.009495895076569491,-0.09731323861806274,0.09941678041707214,-0.9902304102267625,1.0,0.0,0.0,0.0,1.0,0.0,0.0,0.0,1.0,0.06747487187385559,0.18553969264030457,-0.1006036698818207,1.2184696791468346e-07,0.0,0.0,0.0,1.2184696791468346e-07,0.0,0.0,0.0,1.2184696791468346e-07,-0.3334261,0.7354987500000009,7.2176944,8.999999999999999e-08,0.0,0.0,0.0,8.999999999999999e-08,0.0,0.0,0.0,8.999999999999999e-08
1532135197.884935,4696,1532135197,876766096,base_link,-0.04388486081125619,-0.12207479608818506,0.10815431664868506,-0.9856340634037871,1.0,0.0,0.0,0.0,1.0,0.0,0.0,0.0,1.0,0.2715005576610565,0.12230883538722992,0.033884275704622255,1.2184696791468346e-07,0.0,0.0,0.0,1.2184696791468346e-07,0.0,0.0,0.0,1.2184696791468346e-07,-0.5491724,-0.627625599999999,8.3356525,8.999999999999999e-08,0.0,0.0,0.0,8.999999999999999e-08,0.0,0.0,0.0,8.999999999999999e-08
1532135198.2173517,4697,1532135198,212863920,base_link,-0.06614027804320863,-0.13093027669211016,0.09639023647423732,-0.9844753163884482,1.0,0.0,0.0,0.0,1.0,0.0,0.0,0.0,1.0,-0.08666782826185226,0.06165634840726854,0.08918891847133635,1.2184696791468346e-07,0.0,0.0,0.0,1.2184696791468346e-07,0.0,0.0,0.0,1.2184696791468346e-07,-0.6080123,0.5393657500000009,7.34518085,8.999999999999999e-08,0.0,0.0,0.0,8.999999999999999e-08,0.0,0.0,0.0,8.999999999999999e-08
1532135198.5916533,4698,1532135198,591387088,base_link,-0.01727655711397781,-0.14234004721871846,0.09089082546614384,-0.9854844947426333,1.0,0.0,0.0,0.0,1.0,0.0,0.0,0.0,1.0,-0.24022522568702698,0.015162462368607509,-0.09978757798671722,1.2184696791468346e-07,0.0,0.0,0.0,1.2184696791468346e-07,0.0,0.0,0.0,1.2184696791468346e-07,-0.7256921000000001,0.16671305000000122,10.0223963,8.999999999999999e-08,0.0,0.0,0.0,8.999999999999999e-08,0.0,0.0,0.0,8.999999999999999e-08
1532135199.0956316,4699,1532135199,95258832,base_link,0.008731228105171962,-0.13832815817813376,0.10811221019211313,-0.984429193146057,1.0,0.0,0.0,0.0,1.0,0.0,0.0,0.0,1.0,-0.003561385441571474,-0.01881609857082367,-0.01394894905388355,1.2184696791468346e-07,0.0,0.0,0.0,1.2184696791468346e-07,0.0,0.0,0.0,1.2184696791468346e-07,-0.6472389000000001,0.11767980000000132,10.81673495,8.999999999999999e-08,0.0,0.0,0.0,8.999999999999999e-08,0.0,0.0,0.0,8.999999999999999e-08
1532135199.4855366,4700,1532135199,482159792,base_link,-0.0048869581699731435,-0.12769523592164078,0.09607696854962465,-0.9871369005751309,1.0,0.0,0.0,0.0,1.0,0.0,0.0,0.0,1.0,0.10775879770517349,-0.057298209518194185,0.11080650985240938,1.2184696791468346e-07,0.0,0.0,0.0,1.2184696791468346e-07,0.0,0.0,0.0,1.2184696791468346e-07,-0.9414384,-0.1569063999999986,11.20900095,8.999999999999999e-08,0.0,0.0,0.0,8.999999999999999e-08,0.0,0.0,0.0,8.999999999999999e-08
1532135199.880026,4701,1532135199,879670672,base_link,-0.019936474537749056,-0.11064532362973858,0.08381895771853659,-0.9901184432525506,1.0,0.0,0.0,0.0,1.0,0.0,0.0,0.0,1.0,-0.12148460000753403,-0.0896492674946785,-0.008576124906539907,1.2184696791468346e-07,0.0,0.0,0.0,1.2184696791468346e-07,0.0,0.0,0.0,1.2184696791468346e-07,-1.10815145,0.41187930000000117,9.67916355,8.999999999999999e-08,0.0,0.0,0.0,8.999999999999999e-08,0.0,0.0,0.0,8.999999999999999e-08
1532135200.1727371,4702,1532135200,172343280,base_link,0.005571536109013134,-0.10073923571416972,0.0919996043837108,-0.9906344619315197,1.0,0.0,0.0,0.0,1.0,0.0,0.0,0.0,1.0,-0.1142524853348732,-0.05421601235866548,-0.11393442004919052,1.2184696791468346e-07,0.0,0.0,0.0,1.2184696791468346e-07,0.0,0.0,0.0,1.2184696791468346e-07,-0.980665,0.3628460500000014,11.15016105,8.999999999999999e-08,0.0,0.0,0.0,8.999999999999999e-08,0.0,0.0,0.0,8.999999999999999e-08
1532135200.5383995,4703,1532135200,538093296,base_link,0.004900283084568745,-0.0888445852273109,0.10193306679546571,-0.9908038538455274,1.0,0.0,0.0,0.0,1.0,0.0,0.0,0.0,1.0,0.02406887337565422,-0.03186517208814621,0.008367176167666916,1.2184696791468346e-07,0.0,0.0,0.0,1.2184696791468346e-07,0.0,0.0,0.0,1.2184696791468346e-07,-1.176798,0.019613300000001277,10.40485565,8.999999999999999e-08,0.0,0.0,0.0,8.999999999999999e-08,0.0,0.0,0.0,8.999999999999999e-08
1532135200.9418733,4704,1532135200,941592848,base_link,0.018110882141267264,-0.08142535158118991,0.0916429793609862,-0.9922920297985802,1.0,0.0,0.0,0.0,1.0,0.0,0.0,0.0,1.0,-0.04040120914578438,-0.007356679998338215,0.06219585984945297,1.2184696791468346e-07,0.0,0.0,0.0,1.2184696791468346e-07,0.0,0.0,0.0,1.2184696791468346e-07,-1.24544455,-0.14709974999999867,10.79712165,8.999999999999999e-08,0.0,0.0,0.0,8.999999999999999e-08,0.0,0.0,0.0,8.999999999999999e-08
1532135201.4208028,4705,1532135201,420501264,base_link,0.021911269984284103,-0.07879132526295185,0.07011720165848434,-0.994180768946255,1.0,0.0,0.0,0.0,1.0,0.0,0.0,0.0,1.0,-0.1289438009262085,0.014280240982770923,0.02660843916237354,1.2184696791468346e-07,0.0,0.0,0.0,1.2184696791468346e-07,0.0,0.0,0.0,1.2184696791468346e-07,-1.14737805,0.5001391500000011,8.7475318,8.999999999999999e-08,0.0,0.0,0.0,8.999999999999999e-08,0.0,0.0,0.0,8.999999999999999e-08
1532135201.9152505,4706,1532135201,915055280,base_link,0.00029313165334944634,-0.07712488809204146,0.07751186704680063,-0.9940038109471929,1.0,0.0,0.0,0.0,1.0,0.0,0.0,0.0,1.0,0.16225458681583405,0.015858288854360577,-0.035303954035043716,1.2184696791468346e-07,0.0,0.0,0.0,1.2184696791468346e-07,0.0,0.0,0.0,1.2184696791468346e-07,-1.1964113,1.1036898247696862e-15,9.012311350000001,8.999999999999999e-08,0.0,0.0,0.0,8.999999999999999e-08,0.0,0.0,0.0,8.999999999999999e-08
1532135202.189276,4707,1532135202,188919504,base_link,-0.028072491645136474,-0.07722877990537533,0.08067970744665998,-0.9933470871621269,1.0,0.0,0.0,0.0,1.0,0.0,0.0,0.0,1.0,0.08474180847406387,0.056323058903217316,0.008180201053619378,1.2184696791468346e-07,0.0,0.0,0.0,1.2184696791468346e-07,0.0,0.0,0.0,1.2184696791468346e-07,-1.16699135,-0.049033249999998745,10.22833595,8.999999999999999e-08,0.0,0.0,0.0,8.999999999999999e-08,0.0,0.0,0.0,8.999999999999999e-08
1532135202.6063704,4708,1532135202,606091856,base_link,-0.015118649986980523,-0.09230257478307584,0.07248771391952513,-0.9929739132735094,1.0,0.0,0.0,0.0,1.0,0.0,0.0,0.0,1.0,-0.09524156153202057,0.09392308443784714,0.01791268214583396,1.2184696791468346e-07,0.0,0.0,0.0,1.2184696791468346e-07,0.0,0.0,0.0,1.2184696791468346e-07,-1.1375714000000001,0.421685950000001,8.01203305,8.999999999999999e-08,0.0,0.0,0.0,8.999999999999999e-08,0.0,0.0,0.0,8.999999999999999e-08
1532135202.9421563,4709,1532135202,941598704,base_link,-0.016320109801413338,-0.1076734411132487,0.07283406834061296,-0.9913804933444357,1.0,0.0,0.0,0.0,1.0,0.0,0.0,0.0,1.0,0.12482482939958572,0.08701808750629425,-0.0041231838986277684,1.2184696791468346e-07,0.0,0.0,0.0,1.2184696791468346e-07,0.0,0.0,0.0,1.2184696791468346e-07,-1.3925443,0.30400615000000086,7.0607880000000005,8.999999999999999e-08,0.0,0.0,0.0,8.999999999999999e-08,0.0,0.0,0.0,8.999999999999999e-08
1532135203.3952582,4710,1532135203,393569200,base_link,-0.03430810698264023,-0.1225069489347547,0.08159475031511813,-0.9885126696097417,1.0,0.0,0.0,0.0,1.0,0.0,0.0,0.0,1.0,0.011156143620610237,0.05015424638986587,-0.033540204167366035,1.2184696791468346e-07,0.0,0.0,0.0,1.2184696791468346e-07,0.0,0.0,0.0,1.2184696791468346e-07,-1.46119085,-0.14709974999999903,7.89435325,8.999999999999999e-08,0.0,0.0,0.0,8.999999999999999e-08,0.0,0.0,0.0,8.999999999999999e-08
1532135203.8672698,4711,1532135203,865970000,base_link,-0.04791145794777744,-0.1328686429980848,0.0797670192805585,-0.9867561190792085,1.0,0.0,0.0,0.0,1.0,0.0,0.0,0.0,1.0,0.10780012607574463,-0.04711439087986946,0.02622728608548642,1.2184696791468346e-07,0.0,0.0,0.0,1.2184696791468346e-07,0.0,0.0,0.0,1.2184696791468346e-07,-1.26505785,0.343232750000001,7.69822025,8.999999999999999e-08,0.0,0.0,0.0,8.999999999999999e-08,0.0,0.0,0.0,8.999999999999999e-08
