Time,header.seq,header.stamp.secs,header.stamp.nsecs,header.frame_id,orientation.x,orientation.y,orientation.z,orientation.w,orientation_covariance_0,orientation_covariance_1,orientation_covariance_2,orientation_covariance_3,orientation_covariance_4,orientation_covariance_5,orientation_covariance_6,orientation_covariance_7,orientation_covariance_8,angular_velocity.x,angular_velocity.y,angular_velocity.z,angular_velocity_covariance_0,angular_velocity_covariance_1,angular_velocity_covariance_2,angular_velocity_covariance_3,angular_velocity_covariance_4,angular_velocity_covariance_5,angular_velocity_covariance_6,angular_velocity_covariance_7,angular_velocity_covariance_8,linear_acceleration.x,linear_acceleration.y,linear_acceleration.z,linear_acceleration_covariance_0,linear_acceleration_covariance_1,linear_acceleration_covariance_2,linear_acceleration_covariance_3,linear_acceleration_covariance_4,linear_acceleration_covariance_5,linear_acceleration_covariance_6,linear_acceleration_covariance_7,linear_acceleration_covariance_8
1531930511.313198,4084,1531930511,312945192,base_link,-0.07479969265368411,-0.023208024486946494,-0.9964280192878681,-0.031584742461883315,1.0,0.0,0.0,0.0,1.0,0.0,0.0,0.0,1.0,-0.0479733981192112,0.02897760272026062,0.01334417704492807,1.2184696791468346e-07,0.0,0.0,0.0,1.2184696791468346e-07,0.0,0.0,0.0,1.2184696791468346e-07,0.32361945000000003,-0.06864654999999883,9.56148375,8.999999999999999e-08,0.0,0.0,0.0,8.999999999999999e-08,0.0,0.0,0.0,8.999999999999999e-08
1531930511.6441886,4085,1531930511,643949832,base_link,-0.08735606591483838,-0.03658167948861809,-0.9950512523606461,-0.030061664112027604,1.0,0.0,0.0,0.0,1.0,0.0,0.0,0.0,1.0,0.4438062906265259,-0.06581588834524155,-0.027130536735057824,1.2184696791468346e-07,0.0,0.0,0.0,1.2184696791468346e-07,0.0,0.0,0.0,1.2184696791468346e-07,0.12748645,0.32361945000000125,9.97336305,8.999999999999999e-08,0.0,0.0,0.0,8.999999999999999e-08,0.0,0.0,0.0,8.999999999999999e-08
1531930512.058519,4086,1531930512,57775656,base_link,-0.07575570001197492,-0.15752231423315888,-0.9838786554532992,-0.03782308524874479,1.0,0.0,0.0,0.0,1.0,0.0,0.0,0.0,1.0,0.6302465200424194,0.019809776917099932,-0.1565215289592743,1.2184696791468346e-07,0.0,0.0,0.0,1.2184696791468346e-07,0.0,0.0,0.0,1.2184696791468346e-07,-0.34323275,0.1765197000000007,5.79573015,8.999999999999999e-08,0.0,0.0,0.0,8.999999999999999e-08,0.0,0.0,0.0,8.999999999999999e-08
1531930512.4202552,4087,1531930512,414845192,base_link,-0.049518870262868435,-0.2575895936635144,-0.963057232439049,-0.06096105126221452,1.0,0.0,0.0,0.0,1.0,0.0,0.0,0.0,1.0,0.4466966986656189,0.12057496607303617,-0.24182248115539554,1.2184696791468346e-07,0.0,0.0,0.0,1.2184696791468346e-07,0.0,0.0,0.0,1.2184696791468346e-07,-0.91201845,0.5001391500000008,6.1585762,8.999999999999999e-08,0.0,0.0,0.0,8.999999999999999e-08,0.0,0.0,0.0,8.999999999999999e-08
1531930512.814615,4088,1531930512,814221448,base_link,-0.010370465401964285,-0.3087200106384687,-0.9457904424302819,-0.10032371347922699,1.0,0.0,0.0,0.0,1.0,0.0,0.0,0.0,1.0,-0.0887274295091629,0.19091956317424771,-0.24839581549167636,1.2184696791468346e-07,0.0,0.0,0.0,1.2184696791468346e-07,0.0,0.0,0.0,1.2184696791468346e-07,-1.24544455,-0.2745861999999996,3.1577413,8.999999999999999e-08,0.0,0.0,0.0,8.999999999999999e-08,0.0,0.0,0.0,8.999999999999999e-08
1531930513.2222626,4089,1531930513,221533224,base_link,0.008723513232835744,-0.3268317297069511,-0.9352242975318852,-0.13586918002119036,1.0,0.0,0.0,0.0,1.0,0.0,0.0,0.0,1.0,-0.0004939576610922813,0.00995251256972549,-0.1989726573228836,1.2184696791468346e-07,0.0,0.0,0.0,1.2184696791468346e-07,0.0,0.0,0.0,1.2184696791468346e-07,-1.28467115,0.7845320000000007,5.18771785,8.999999999999999e-08,0.0,0.0,0.0,8.999999999999999e-08,0.0,0.0,0.0,8.999999999999999e-08
1531930513.5493643,4090,1531930513,548850056,base_link,0.03278985829401713,-0.3293531136788433,-0.9272579596298156,-0.17505435729012908,1.0,0.0,0.0,0.0,1.0,0.0,0.0,0.0,1.0,-0.1491728276014328,0.10706020891666408,-0.3239249587059021,1.2184696791468346e-07,0.0,0.0,0.0,1.2184696791468346e-07,0.0,0.0,0.0,1.2184696791468346e-07,-1.38273765,0.5295591000000008,7.07059465,8.999999999999999e-08,0.0,0.0,0.0,8.999999999999999e-08,0.0,0.0,0.0,8.999999999999999e-08
1531930513.9660828,4091,1531930513,965552808,base_link,0.07884509279197208,-0.29960090964184943,-0.9176716659184836,-0.24880003990111516,1.0,0.0,0.0,0.0,1.0,0.0,0.0,0.0,1.0,-0.05569332093000412,-0.004965886473655761,-0.4972612261772156,1.2184696791468346e-07,0.0,0.0,0.0,1.2184696791468346e-07,0.0,0.0,0.0,1.2184696791468346e-07,-1.38273765,0.7649187000000006,5.099458,8.999999999999999e-08,0.0,0.0,0.0,8.999999999999999e-08,0.0,0.0,0.0,8.999999999999999e-08
1531930514.3532987,4092,1531930514,353011944,base_link,0.09280431244508196,-0.28324910851264257,-0.9016288438178479,-0.3134050575757827,1.0,0.0,0.0,0.0,1.0,0.0,0.0,0.0,1.0,0.00839432142674923,-0.08755754679441455,-0.18846777081489563,1.2184696791468346e-07,0.0,0.0,0.0,1.2184696791468346e-07,0.0,0.0,0.0,1.2184696791468346e-07,-1.4709975,-0.2745861999999988,9.9635564,8.999999999999999e-08,0.0,0.0,0.0,8.999999999999999e-08,0.0,0.0,0.0,8.999999999999999e-08
1531930514.5682542,4093,1531930514,567987880,base_link,0.08918176547389224,-0.2882968451490996,-0.8942734141875204,-0.33046422266477093,1.0,0.0,0.0,0.0,1.0,0.0,0.0,0.0,1.0,0.08355753868818283,-0.0799403563141823,-0.1394278109073639,1.2184696791468346e-07,0.0,0.0,0.0,1.2184696791468346e-07,0.0,0.0,0.0,1.2184696791468346e-07,-1.53964405,-0.009806649999998881,9.12999115,8.999999999999999e-08,0.0,0.0,0.0,8.999999999999999e-08,0.0,0.0,0.0,8.999999999999999e-08
1531930515.043613,4094,1531930515,43333576,base_link,0.10310491463670428,-0.25438045766963074,-0.8860908098119213,-0.37350105234175746,1.0,0.0,0.0,0.0,1.0,0.0,0.0,0.0,1.0,-0.26559752225875854,-0.12106586992740634,-0.26941370964050293,1.2184696791468346e-07,0.0,0.0,0.0,1.2184696791468346e-07,0.0,0.0,0.0,1.2184696791468346e-07,-1.7848103,0.42168595000000114,9.0025047,8.999999999999999e-08,0.0,0.0,0.0,8.999999999999999e-08,0.0,0.0,0.0,8.999999999999999e-08
1531930515.4302647,4095,1531930515,429926408,base_link,0.11845734869484735,-0.1980519436270644,-0.8784184337281221,-0.4184786009491548,1.0,0.0,0.0,0.0,1.0,0.0,0.0,0.0,1.0,-0.19854451715946198,0.003663199022412271,-0.23888753354549408,1.2184696791468346e-07,0.0,0.0,0.0,1.2184696791468346e-07,0.0,0.0,0.0,1.2184696791468346e-07,-1.569064,-0.38245934999999853,12.0229529,8.999999999999999e-08,0.0,0.0,0.0,8.999999999999999e-08,0.0,0.0,0.0,8.999999999999999e-08
1531930515.8489363,4096,1531930515,848637896,base_link,0.12362228016807038,-0.16760147054791547,-0.8779901022607326,-0.4309996046963518,1.0,0.0,0.0,0.0,1.0,0.0,0.0,0.0,1.0,-0.2604832053184509,-0.180320143699646,0.047944754362106344,1.2184696791468346e-07,0.0,0.0,0.0,1.2184696791468346e-07,0.0,0.0,0.0,1.2184696791468346e-07,-1.7259704,0.1667130500000014,11.38552065,8.999999999999999e-08,0.0,0.0,0.0,8.999999999999999e-08,0.0,0.0,0.0,8.999999999999999e-08
1531930516.1849139,4097,1531930516,183013992,base_link,0.13151689721242069,-0.12530327854207957,-0.8859156708761816,-0.42679716286572084,1.0,0.0,0.0,0.0,1.0,0.0,0.0,0.0,1.0,-0.19033829867839813,-0.049900531768798835,-0.0561743713915348,1.2184696791468346e-07,0.0,0.0,0.0,1.2184696791468346e-07,0.0,0.0,0.0,1.2184696791468346e-07,-1.96133,0.7060788000000012,9.89490985,8.999999999999999e-08,0.0,0.0,0.0,8.999999999999999e-08,0.0,0.0,0.0,8.999999999999999e-08
1531930516.5541697,4098,1531930516,553875912,base_link,0.1427580005770491,-0.09305569493345407,-0.8853608744665575,-0.43254700655016454,1.0,0.0,0.0,0.0,1.0,0.0,0.0,0.0,1.0,-0.4233781397342682,0.0012254435569047815,-0.09160324931144714,1.2184696791468346e-07,0.0,0.0,0.0,1.2184696791468346e-07,0.0,0.0,0.0,1.2184696791468346e-07,-1.8632635,0.8335652500000013,10.591182,8.999999999999999e-08,0.0,0.0,0.0,8.999999999999999e-08,0.0,0.0,0.0,8.999999999999999e-08
1531930516.8973696,4099,1531930516,894546344,base_link,0.1595723565274361,-0.07362417636301234,-0.8762786897814432,-0.4486109690166594,1.0,0.0,0.0,0.0,1.0,0.0,0.0,0.0,1.0,0.04580852389335632,-0.0486971251666546,-0.09713587164878845,1.2184696791468346e-07,0.0,0.0,0.0,1.2184696791468346e-07,0.0,0.0,0.0,1.2184696791468346e-07,-2.02997655,-0.9610516999999988,8.9044382,8.999999999999999e-08,0.0,0.0,0.0,8.999999999999999e-08,0.0,0.0,0.0,8.999999999999999e-08
1531930517.3381038,4100,1531930517,335873992,base_link,0.15549375044754132,-0.0573943485705204,-0.8877548444817854,-0.4294402384768389,1.0,0.0,0.0,0.0,1.0,0.0,0.0,0.0,1.0,0.00622224435210228,0.006958062760531918,0.12801095843315125,1.2184696791468346e-07,0.0,0.0,0.0,1.2184696791468346e-07,0.0,0.0,0.0,1.2184696791468346e-07,-1.96133,0.5001391500000013,10.65982855,8.999999999999999e-08,0.0,0.0,0.0,8.999999999999999e-08,0.0,0.0,0.0,8.999999999999999e-08
1531930517.7850296,4101,1531930517,784663976,base_link,0.17927688103582642,-0.008901499536970075,-0.8900452402948564,-0.41904657671973766,1.0,0.0,0.0,0.0,1.0,0.0,0.0,0.0,1.0,-0.5378541946411133,-0.010785801336169252,-0.06495051085948944,1.2184696791468346e-07,0.0,0.0,0.0,1.2184696791468346e-07,0.0,0.0,0.0,1.2184696791468346e-07,-1.91229675,1.000278300000001,9.24767095,8.999999999999999e-08,0.0,0.0,0.0,8.999999999999999e-08,0.0,0.0,0.0,8.999999999999999e-08
1531930518.126608,4102,1531930518,126353352,base_link,0.1729824785463332,0.008942714848558185,-0.8875772260847241,-0.42685332106339713,1.0,0.0,0.0,0.0,1.0,0.0,0.0,0.0,1.0,0.08491263538599014,-0.06209091842174529,0.030770942568779,1.2184696791468346e-07,0.0,0.0,0.0,1.2184696791468346e-07,0.0,0.0,0.0,1.2184696791468346e-07,-1.8044236,-0.10787314999999868,10.87557485,8.999999999999999e-08,0.0,0.0,0.0,8.999999999999999e-08,0.0,0.0,0.0,8.999999999999999e-08
1531930518.401708,4103,1531930518,401170312,base_link,0.16002371169806848,-0.031016054494841586,-0.8926926478038697,-0.42015503402299365,1.0,0.0,0.0,0.0,1.0,0.0,0.0,0.0,1.0,0.327718049287796,0.15666165947914126,0.19736181199550626,1.2184696791468346e-07,0.0,0.0,0.0,1.2184696791468346e-07,0.0,0.0,0.0,1.2184696791468346e-07,-1.8240369,-0.5491723999999991,7.44324735,8.999999999999999e-08,0.0,0.0,0.0,8.999999999999999e-08,0.0,0.0,0.0,8.999999999999999e-08
1531930518.7474432,4104,1531930518,747082760,base_link,0.15517374977566964,-0.07177508790487644,-0.9066315929460202,-0.38573125205117476,1.0,0.0,0.0,0.0,1.0,0.0,0.0,0.0,1.0,0.02907416597008705,0.05630189925432207,0.17751877009868622,1.2184696791468346e-07,0.0,0.0,0.0,1.2184696791468346e-07,0.0,0.0,0.0,1.2184696791468346e-07,-2.0201699,-0.3530393999999989,9.11037785,8.999999999999999e-08,0.0,0.0,0.0,8.999999999999999e-08,0.0,0.0,0.0,8.999999999999999e-08
1531930519.103794,4105,1531930519,103469928,base_link,0.13565250341533552,-0.07951227501369004,-0.9126210150324771,-0.3773580254352501,1.0,0.0,0.0,0.0,1.0,0.0,0.0,0.0,1.0,0.17775431275367737,-0.12355852127075195,0.037371713668108,1.2184696791468346e-07,0.0,0.0,0.0,1.2184696791468346e-07,0.0,0.0,0.0,1.2184696791468346e-07,-2.04958985,-0.6276255999999988,10.3165958,8.999999999999999e-08,0.0,0.0,0.0,8.999999999999999e-08,0.0,0.0,0.0,8.999999999999999e-08
1531930519.5665748,4106,1531930519,566070088,base_link,0.08424826244308518,-0.11677263957139362,-0.9179512305040923,-0.3696375513105686,1.0,0.0,0.0,0.0,1.0,0.0,0.0,0.0,1.0,0.17359207570552826,-0.0832224190235138,-0.040056448429822915,1.2184696791468346e-07,0.0,0.0,0.0,1.2184696791468346e-07,0.0,0.0,0.0,1.2184696791468346e-07,-1.0983448,0.27458620000000156,12.73883835,8.999999999999999e-08,0.0,0.0,0.0,8.999999999999999e-08,0.0,0.0,0.0,8.999999999999999e-08
1531930519.8221605,4107,1531930519,821904392,base_link,0.05197978287242639,-0.1411444422414436,-0.9080367151952075,-0.3909548215003676,1.0,0.0,0.0,0.0,1.0,0.0,0.0,0.0,1.0,0.34186848998069763,-0.1649437099695206,-0.1998878717422485,1.2184696791468346e-07,0.0,0.0,0.0,1.2184696791468346e-07,0.0,0.0,0.0,1.2184696791468346e-07,-0.91201845,0.7158854500000017,13.91563635,8.999999999999999e-08,0.0,0.0,0.0,8.999999999999999e-08,0.0,0.0,0.0,8.999999999999999e-08
1531930520.1556761,4108,1531930520,155133768,base_link,-0.0033957195832479284,-0.12928588299944083,-0.8932370195433672,-0.43058246186166105,1.0,0.0,0.0,0.0,1.0,0.0,0.0,0.0,1.0,0.29468807578086853,-0.39197611808776855,-0.17137947678565973,1.2184696791468346e-07,0.0,0.0,0.0,1.2184696791468346e-07,0.0,0.0,0.0,1.2184696791468346e-07,0.14709975,-0.13729309999999764,19.13277415,8.999999999999999e-08,0.0,0.0,0.0,8.999999999999999e-08,0.0,0.0,0.0,8.999999999999999e-08
1531930520.6201553,4109,1531930520,619855624,base_link,-0.10909688010431169,-0.1739616063929254,-0.8676079643811752,-0.45287045652708613,1.0,0.0,0.0,0.0,1.0,0.0,0.0,0.0,1.0,0.37493208050727844,-0.16705322265625,-0.06797779351472853,1.2184696791468346e-07,0.0,0.0,0.0,1.2184696791468346e-07,0.0,0.0,0.0,1.2184696791468346e-07,0.5099458,0.23535960000000175,14.11176935,8.999999999999999e-08,0.0,0.0,0.0,8.999999999999999e-08,0.0,0.0,0.0,8.999999999999999e-08
1531930521.0038311,4110,1531930521,3535496,base_link,-0.1940054565910826,-0.2625004736402793,-0.8278481558479461,-0.45620479503252637,1.0,0.0,0.0,0.0,1.0,0.0,0.0,0.0,1.0,0.28248366713523865,-0.14798961579799655,-0.15712757408618924,1.2184696791468346e-07,0.0,0.0,0.0,1.2184696791468346e-07,0.0,0.0,0.0,1.2184696791468346e-07,1.08853815,1.068924850000001,9.11037785,8.999999999999999e-08,0.0,0.0,0.0,8.999999999999999e-08,0.0,0.0,0.0,8.999999999999999e-08
1531930521.4915996,4111,1531930521,491221736,base_link,-0.21401002744409175,-0.2762734862585765,-0.7704735935925504,-0.5331445493677044,1.0,0.0,0.0,0.0,1.0,0.0,0.0,0.0,1.0,0.1939970999956131,-0.3055012524127961,-0.356194257736206,1.2184696791468346e-07,0.0,0.0,0.0,1.2184696791468346e-07,0.0,0.0,0.0,1.2184696791468346e-07,1.1375714000000001,0.14709975000000142,11.67972015,8.999999999999999e-08,0.0,0.0,0.0,8.999999999999999e-08,0.0,0.0,0.0,8.999999999999999e-08
1531930521.8651097,4112,1531930521,864854568,base_link,-0.23842553902234065,-0.2755710750690539,-0.7363112776303582,-0.570139936648488,1.0,0.0,0.0,0.0,1.0,0.0,0.0,0.0,1.0,-0.07859985530376434,-0.19381834566593173,-0.19011463224887845,1.2184696791468346e-07,0.0,0.0,0.0,1.2184696791468346e-07,0.0,0.0,0.0,1.2184696791468346e-07,1.5886773,0.49033250000000145,11.93469305,8.999999999999999e-08,0.0,0.0,0.0,8.999999999999999e-08,0.0,0.0,0.0,8.999999999999999e-08
1531930522.2494633,4113,1531930522,249163016,base_link,-0.2505521988148583,-0.25793837734170416,-0.6972657712467869,-0.6200901816760139,1.0,0.0,0.0,0.0,1.0,0.0,0.0,0.0,1.0,-0.06405501067638397,-0.12268289923667912,-0.2896098792552948,1.2184696791468346e-07,0.0,0.0,0.0,1.2184696791468346e-07,0.0,0.0,0.0,1.2184696791468346e-07,1.53964405,0.3334261000000016,13.3566573,8.999999999999999e-08,0.0,0.0,0.0,8.999999999999999e-08,0.0,0.0,0.0,8.999999999999999e-08
1531930522.787691,4114,1531930522,787392808,base_link,-0.3057881748911231,-0.2492402605502155,-0.620909962170907,-0.677380028857169,1.0,0.0,0.0,0.0,1.0,0.0,0.0,0.0,1.0,0.1659691333770752,-0.1379937529563904,-0.2827491760253906,1.2184696791468346e-07,0.0,0.0,0.0,1.2184696791468346e-07,0.0,0.0,0.0,1.2184696791468346e-07,1.3533177,0.5982056500000016,12.75845165,8.999999999999999e-08,0.0,0.0,0.0,8.999999999999999e-08,0.0,0.0,0.0,8.999999999999999e-08
1531930523.263425,4115,1531930523,262264808,base_link,-0.3295806246246266,-0.23522084691308512,-0.5494216441938096,-0.7308786643081756,1.0,0.0,0.0,0.0,1.0,0.0,0.0,0.0,1.0,-0.12622793018817902,-0.19724766910076144,-0.2782040536403656,1.2184696791468346e-07,0.0,0.0,0.0,1.2184696791468346e-07,0.0,0.0,0.0,1.2184696791468346e-07,1.53964405,0.39226600000000156,12.56231865,8.999999999999999e-08,0.0,0.0,0.0,8.999999999999999e-08,0.0,0.0,0.0,8.999999999999999e-08
1531930523.7096589,4116,1531930523,709414824,base_link,-0.32463111757763713,-0.1911480519350211,-0.4740581453662709,-0.795830342820398,1.0,0.0,0.0,0.0,1.0,0.0,0.0,0.0,1.0,-0.09286327660083771,-0.2798833250999451,-0.3992538452148437,1.2184696791468346e-07,0.0,0.0,0.0,1.2184696791468346e-07,0.0,0.0,0.0,1.2184696791468346e-07,0.980665,0.39226600000000217,17.38719045,8.999999999999999e-08,0.0,0.0,0.0,8.999999999999999e-08,0.0,0.0,0.0,8.999999999999999e-08
1531930524.0513675,4117,1531930524,51101352,base_link,-0.3427809199076301,-0.16584919815851443,-0.4110196565496035,-0.8282862586976211,1.0,0.0,0.0,0.0,1.0,0.0,0.0,0.0,1.0,0.17660920321941376,-0.3546943366527558,-0.3002115190029144,1.2184696791468346e-07,0.0,0.0,0.0,1.2184696791468346e-07,0.0,0.0,0.0,1.2184696791468346e-07,0.4511059,0.27458620000000183,15.112047650000001,8.999999999999999e-08,0.0,0.0,0.0,8.999999999999999e-08,0.0,0.0,0.0,8.999999999999999e-08
1531930524.4082668,4118,1531930524,408041128,base_link,-0.40071303221991594,-0.15226042762269507,-0.3390646816439794,-0.83742520242165,1.0,0.0,0.0,0.0,1.0,0.0,0.0,0.0,1.0,-0.1056613028049469,-0.5049710273742676,-0.2335131168365478,1.2184696791468346e-07,0.0,0.0,0.0,1.2184696791468346e-07,0.0,0.0,0.0,1.2184696791468346e-07,0.8825985000000001,0.16671305000000156,12.69961175,8.999999999999999e-08,0.0,0.0,0.0,8.999999999999999e-08,0.0,0.0,0.0,8.999999999999999e-08
1531930524.7860358,4119,1531930524,782292008,base_link,-0.3982343547348028,-0.09710661204264977,-0.27518845937072034,-0.8696269409555586,1.0,0.0,0.0,0.0,1.0,0.0,0.0,0.0,1.0,-0.3648938536643982,-0.3209107518196106,-0.22432622313499448,1.2184696791468346e-07,0.0,0.0,0.0,1.2184696791468346e-07,0.0,0.0,0.0,1.2184696791468346e-07,0.588399,0.5197524500000029,24.0851324,8.999999999999999e-08,0.0,0.0,0.0,8.999999999999999e-08,0.0,0.0,0.0,8.999999999999999e-08
1531930525.1516893,4120,1531930525,151337928,base_link,-0.4009096419752825,-0.056057699305520084,-0.22186428969784278,-0.8870767893912535,1.0,0.0,0.0,0.0,1.0,0.0,0.0,0.0,1.0,0.08810391277074814,-0.34273406863212585,-0.08659391850233074,1.2184696791468346e-07,0.0,0.0,0.0,1.2184696791468346e-07,0.0,0.0,0.0,1.2184696791468346e-07,-0.32361945000000003,-0.48052584999999826,14.17060925,8.999999999999999e-08,0.0,0.0,0.0,8.999999999999999e-08,0.0,0.0,0.0,8.999999999999999e-08
1531930525.510923,4121,1531930525,510088904,base_link,-0.4099139245987455,-0.024616825626043937,-0.18320617110044102,-0.8931965546210234,1.0,0.0,0.0,0.0,1.0,0.0,0.0,0.0,1.0,-0.10325352847576141,-0.16532330214977267,-0.2018507122993469,1.2184696791468346e-07,0.0,0.0,0.0,1.2184696791468346e-07,0.0,0.0,0.0,1.2184696791468346e-07,-0.5687857000000001,0.7453054000000016,13.05265115,8.999999999999999e-08,0.0,0.0,0.0,8.999999999999999e-08,0.0,0.0,0.0,8.999999999999999e-08
1531930525.9860172,4122,1531930525,984866344,base_link,-0.4177158493521785,-0.017512708316396307,-0.10033585055751831,-0.9028507580659788,1.0,0.0,0.0,0.0,1.0,0.0,0.0,0.0,1.0,0.011029396206140518,-0.15382820367813113,-0.3032642900943756,1.2184696791468346e-07,0.0,0.0,0.0,1.2184696791468346e-07,0.0,0.0,0.0,1.2184696791468346e-07,-0.8825985000000001,0.43149260000000134,10.787315,8.999999999999999e-08,0.0,0.0,0.0,8.999999999999999e-08,0.0,0.0,0.0,8.999999999999999e-08
1531930526.3394358,4123,1531930526,338389576,base_link,-0.4311432717709371,-0.00905592023802981,-0.0435894110002803,-0.9011844610089228,1.0,0.0,0.0,0.0,1.0,0.0,0.0,0.0,1.0,0.02883024327456951,-0.2382307052612305,-0.19200387597084043,1.2184696791468346e-07,0.0,0.0,0.0,1.2184696791468346e-07,0.0,0.0,0.0,1.2184696791468346e-07,-1.04931155,0.34323275000000125,10.48330885,8.999999999999999e-08,0.0,0.0,0.0,8.999999999999999e-08,0.0,0.0,0.0,8.999999999999999e-08
1531930526.6916072,4124,1531930526,691331880,base_link,-0.43287511635061193,0.005589112203286533,0.010967641165478437,-0.9013698499042935,1.0,0.0,0.0,0.0,1.0,0.0,0.0,0.0,1.0,0.028589319437742233,-0.1019804105162621,-0.301368772983551,1.2184696791468346e-07,0.0,0.0,0.0,1.2184696791468346e-07,0.0,0.0,0.0,1.2184696791468346e-07,-0.7453054,0.04903325000000114,9.2967042,8.999999999999999e-08,0.0,0.0,0.0,8.999999999999999e-08,0.0,0.0,0.0,8.999999999999999e-08
1531930527.1102173,4125,1531930527,109828136,base_link,-0.42008756604146585,0.020068006965766237,0.09273042618291544,-0.9025102658771889,1.0,0.0,0.0,0.0,1.0,0.0,0.0,0.0,1.0,-0.05847407504916191,-0.20867532491683963,-0.32321321964263916,1.2184696791468346e-07,0.0,0.0,0.0,1.2184696791468346e-07,0.0,0.0,0.0,1.2184696791468346e-07,-0.77472535,0.009806650000001476,12.05237285,8.999999999999999e-08,0.0,0.0,0.0,8.999999999999999e-08,0.0,0.0,0.0,8.999999999999999e-08
1531930527.452438,4126,1531930527,451384232,base_link,-0.3884594950704231,0.033617526691075005,0.14774782825682214,-0.9089222529095651,1.0,0.0,0.0,0.0,1.0,0.0,0.0,0.0,1.0,-0.2774351239204407,-0.2594867944717407,-0.1779425889253616,1.2184696791468346e-07,0.0,0.0,0.0,1.2184696791468346e-07,0.0,0.0,0.0,1.2184696791468346e-07,-0.57859235,0.16671305000000172,14.07254275,8.999999999999999e-08,0.0,0.0,0.0,8.999999999999999e-08,0.0,0.0,0.0,8.999999999999999e-08
1531930527.781531,4127,1531930527,781225032,base_link,-0.3257954424742522,0.03817007171805596,0.18017159416084821,-0.9273287291708283,1.0,0.0,0.0,0.0,1.0,0.0,0.0,0.0,1.0,-0.6408581137657166,-0.051366016268730184,-0.17632947862148285,1.2184696791468346e-07,0.0,0.0,0.0,1.2184696791468346e-07,0.0,0.0,0.0,1.2184696791468346e-07,-0.85317855,1.1473780500000015,11.95430635,8.999999999999999e-08,0.0,0.0,0.0,8.999999999999999e-08,0.0,0.0,0.0,8.999999999999999e-08
1531930528.0568504,4128,1531930528,56381448,base_link,-0.21499322864497655,0.020565695957656005,0.223501305725271,-0.9504746867358882,1.0,0.0,0.0,0.0,1.0,0.0,0.0,0.0,1.0,-0.8935443758964539,-0.14698910713195804,-0.27635452151298523,1.2184696791468346e-07,0.0,0.0,0.0,1.2184696791468346e-07,0.0,0.0,0.0,1.2184696791468346e-07,-0.9414384,0.47071920000000145,11.7483667,8.999999999999999e-08,0.0,0.0,0.0,8.999999999999999e-08,0.0,0.0,0.0,8.999999999999999e-08
1531930528.5232062,4129,1531930528,522968232,base_link,-0.047356697566736855,-0.005709100678285356,0.2632317741726081,-0.963552687937177,1.0,0.0,0.0,0.0,1.0,0.0,0.0,0.0,1.0,-0.7051268815994263,-0.1111803874373436,-0.0171216633170843,1.2184696791468346e-07,0.0,0.0,0.0,1.2184696791468346e-07,0.0,0.0,0.0,1.2184696791468346e-07,-1.10815145,-0.019613299999998578,11.611073600000001,8.999999999999999e-08,0.0,0.0,0.0,8.999999999999999e-08,0.0,0.0,0.0,8.999999999999999e-08
1531930528.7990947,4130,1531930528,798791336,base_link,0.05280151207657131,-0.02213817437264028,0.2599199809435863,-0.9639312761105743,1.0,0.0,0.0,0.0,1.0,0.0,0.0,0.0,1.0,-0.6750389933586121,-0.02467618882656097,0.014833861030638221,1.2184696791468346e-07,0.0,0.0,0.0,1.2184696791468346e-07,0.0,0.0,0.0,1.2184696791468346e-07,-1.4513842000000001,0.4609125500000014,11.2580342,8.999999999999999e-08,0.0,0.0,0.0,8.999999999999999e-08,0.0,0.0,0.0,8.999999999999999e-08
1531930529.2195742,4131,1531930529,217744968,base_link,0.16166999669465656,-0.06495530710941129,0.25136969436337275,-0.9520802996610824,1.0,0.0,0.0,0.0,1.0,0.0,0.0,0.0,1.0,-0.45824289321899414,0.10077556222677232,0.06793860346078871,1.2184696791468346e-07,0.0,0.0,0.0,1.2184696791468346e-07,0.0,0.0,0.0,1.2184696791468346e-07,-1.16699135,-0.03922659999999898,8.36507245,8.999999999999999e-08,0.0,0.0,0.0,8.999999999999999e-08,0.0,0.0,0.0,8.999999999999999e-08
1531930529.5908835,4132,1531930529,590558184,base_link,0.21206385297777583,-0.0862163797469114,0.22779305905497582,-0.9464174450896037,1.0,0.0,0.0,0.0,1.0,0.0,0.0,0.0,1.0,-0.1306365728378296,-0.06691956520080565,0.15008093416690826,1.2184696791468346e-07,0.0,0.0,0.0,1.2184696791468346e-07,0.0,0.0,0.0,1.2184696791468346e-07,-1.3140911,-0.117679799999999,8.07087295,8.999999999999999e-08,0.0,0.0,0.0,8.999999999999999e-08,0.0,0.0,0.0,8.999999999999999e-08
1531930529.9497108,4133,1531930529,949318344,base_link,0.23192238270567786,-0.08366362670885787,0.18661680895564764,-0.9509924145760855,1.0,0.0,0.0,0.0,1.0,0.0,0.0,0.0,1.0,-0.15496253967285156,-0.12113976478576657,0.24372932314872744,1.2184696791468346e-07,0.0,0.0,0.0,1.2184696791468346e-07,0.0,0.0,0.0,1.2184696791468346e-07,-1.0002783,-0.029419949999998744,10.2577559,8.999999999999999e-08,0.0,0.0,0.0,8.999999999999999e-08,0.0,0.0,0.0,8.999999999999999e-08
1531930530.4045622,4134,1531930530,404276008,base_link,0.26513859845975773,-0.08855340685907498,0.14239323539732612,-0.9495177640536949,1.0,0.0,0.0,0.0,1.0,0.0,0.0,0.0,1.0,-0.15188349783420563,-0.04184193536639212,0.10830610990524292,1.2184696791468346e-07,0.0,0.0,0.0,1.2184696791468346e-07,0.0,0.0,0.0,1.2184696791468346e-07,-0.57859235,-0.09806649999999886,9.2574776,8.999999999999999e-08,0.0,0.0,0.0,8.999999999999999e-08,0.0,0.0,0.0,8.999999999999999e-08
1531930530.7897224,4135,1531930530,789115752,base_link,0.25122061160855386,-0.08016629375233039,0.12513444907677418,-0.9564533126626158,1.0,0.0,0.0,0.0,1.0,0.0,0.0,0.0,1.0,0.025422818958759308,-0.06012893840670583,0.21961164474487305,1.2184696791468346e-07,0.0,0.0,0.0,1.2184696791468346e-07,0.0,0.0,0.0,1.2184696791468346e-07,-0.77472535,-0.6766588499999985,12.13082605,8.999999999999999e-08,0.0,0.0,0.0,8.999999999999999e-08,0.0,0.0,0.0,8.999999999999999e-08
1531930531.1642387,4136,1531930531,163890280,base_link,0.23090340287908864,-0.07337863498392744,0.06330653869228425,-0.9681381495559171,1.0,0.0,0.0,0.0,1.0,0.0,0.0,0.0,1.0,0.15927912294864655,-0.22598560154438016,0.3256914019584656,1.2184696791468346e-07,0.0,0.0,0.0,1.2184696791468346e-07,0.0,0.0,0.0,1.2184696791468346e-07,-0.3726527,-0.13729309999999845,12.73883835,8.999999999999999e-08,0.0,0.0,0.0,8.999999999999999e-08,0.0,0.0,0.0,8.999999999999999e-08
1531930531.5173006,4137,1531930531,517048008,base_link,0.1885956951797216,-0.05567272755372901,0.015720826549343755,-0.9803494615589949,1.0,0.0,0.0,0.0,1.0,0.0,0.0,0.0,1.0,0.3214028775691986,-0.11794134229421613,0.19418518245220187,1.2184696791468346e-07,0.0,0.0,0.0,1.2184696791468346e-07,0.0,0.0,0.0,1.2184696791468346e-07,-0.40207265000000003,0.0784532000000015,12.24850585,8.999999999999999e-08,0.0,0.0,0.0,8.999999999999999e-08,0.0,0.0,0.0,8.999999999999999e-08
1531930531.9084904,4138,1531930531,908290920,base_link,0.1535488459301215,-0.0470847740780591,-0.0024152620290200408,-0.9870156748871202,1.0,0.0,0.0,0.0,1.0,0.0,0.0,0.0,1.0,0.3045828342437744,0.02706533856689929,-0.09143392741680145,1.2184696791468346e-07,0.0,0.0,0.0,1.2184696791468346e-07,0.0,0.0,0.0,1.2184696791468346e-07,-0.6668522,0.8237586000000012,9.7085835,8.999999999999999e-08,0.0,0.0,0.0,8.999999999999999e-08,0.0,0.0,0.0,8.999999999999999e-08
1531930532.310722,4139,1531930532,310478952,base_link,0.05482703930054739,-0.04416839337121436,0.01887509643733448,-0.9973399017000291,1.0,0.0,0.0,0.0,1.0,0.0,0.0,0.0,1.0,0.5729981064796448,0.09096044301986696,0.07336539030075072,1.2184696791468346e-07,0.0,0.0,0.0,1.2184696791468346e-07,0.0,0.0,0.0,1.2184696791468346e-07,-0.6864655,-0.715885449999999,8.5121722,8.999999999999999e-08,0.0,0.0,0.0,8.999999999999999e-08,0.0,0.0,0.0,8.999999999999999e-08
1531930532.668191,4140,1531930532,667625160,base_link,-0.007424848963072669,-0.0508752400682313,-0.01398778548255564,-0.9985794527343177,1.0,0.0,0.0,0.0,1.0,0.0,0.0,0.0,1.0,0.19242839515209198,0.048884954303503064,0.19931216537952423,1.2184696791468346e-07,0.0,0.0,0.0,1.2184696791468346e-07,0.0,0.0,0.0,1.2184696791468346e-07,-0.75511205,-0.13729309999999914,7.1784678,8.999999999999999e-08,0.0,0.0,0.0,8.999999999999999e-08,0.0,0.0,0.0,8.999999999999999e-08
1531930533.0239,4141,1531930533,23668392,base_link,-0.03766771023183582,-0.04684694922778324,-0.03245088425130965,-0.9976639950731148,1.0,0.0,0.0,0.0,1.0,0.0,0.0,0.0,1.0,0.11822523176670074,0.02357709035277366,-0.06299963593482971,1.2184696791468346e-07,0.0,0.0,0.0,1.2184696791468346e-07,0.0,0.0,0.0,1.2184696791468346e-07,-0.784532,0.696272150000001,8.11009955,8.999999999999999e-08,0.0,0.0,0.0,8.999999999999999e-08,0.0,0.0,0.0,8.999999999999999e-08
1531930533.429241,4142,1531930533,428990024,base_link,-0.10702593271319107,-0.059089011870982464,0.013750725607918787,-0.992403575138783,1.0,0.0,0.0,0.0,1.0,0.0,0.0,0.0,1.0,0.5288463830947876,0.15196715295314786,-0.20438921451568606,1.2184696791468346e-07,0.0,0.0,0.0,1.2184696791468346e-07,0.0,0.0,0.0,1.2184696791468346e-07,-0.91201845,-0.009806649999999034,7.8845466,8.999999999999999e-08,0.0,0.0,0.0,8.999999999999999e-08,0.0,0.0,0.0,8.999999999999999e-08
1531930533.8087933,4143,1531930533,808358600,base_link,-0.20109446886444182,-0.06143354064709197,0.04350604099512106,-0.9766750529590796,1.0,0.0,0.0,0.0,1.0,0.0,0.0,0.0,1.0,0.4994465708732605,0.004729943349957449,-0.14490795135498047,1.2184696791468346e-07,0.0,0.0,0.0,1.2184696791468346e-07,0.0,0.0,0.0,1.2184696791468346e-07,-0.48052585000000003,0.27458620000000106,8.40429905,8.999999999999999e-08,0.0,0.0,0.0,8.999999999999999e-08,0.0,0.0,0.0,8.999999999999999e-08
1531930534.2081723,4144,1531930534,207804552,base_link,-0.26685728709485884,-0.04738725669199211,0.07748262836861552,-0.9594467564845224,1.0,0.0,0.0,0.0,1.0,0.0,0.0,0.0,1.0,0.39529702067375183,-0.22589008510112762,-0.1076237931847572,1.2184696791468346e-07,0.0,0.0,0.0,1.2184696791468346e-07,0.0,0.0,0.0,1.2184696791468346e-07,-0.3726527,0.11767980000000142,11.48358715,8.999999999999999e-08,0.0,0.0,0.0,8.999999999999999e-08,0.0,0.0,0.0,8.999999999999999e-08
1531930534.492258,4145,1531930534,491994248,base_link,-0.2922056150849347,-0.01343159234242692,0.10346725565830395,-0.9506471468670807,1.0,0.0,0.0,0.0,1.0,0.0,0.0,0.0,1.0,-0.12335025519132614,-0.2855248749256134,-0.1427662372589111,1.2184696791468346e-07,0.0,0.0,0.0,1.2184696791468346e-07,0.0,0.0,0.0,1.2184696791468346e-07,0.0,0.6178189500000016,13.46453045,8.999999999999999e-08,0.0,0.0,0.0,8.999999999999999e-08,0.0,0.0,0.0,8.999999999999999e-08
1531930534.937209,4146,1531930534,934809000,base_link,-0.28673840736099887,0.02118931902227152,0.16164676525107569,-0.9440351803758765,1.0,0.0,0.0,0.0,1.0,0.0,0.0,0.0,1.0,-0.24763351678848267,-0.21200293302536014,-0.22921222448348996,1.2184696791468346e-07,0.0,0.0,0.0,1.2184696791468346e-07,0.0,0.0,0.0,1.2184696791468346e-07,0.1765197,0.23535960000000147,12.05237285,8.999999999999999e-08,0.0,0.0,0.0,8.999999999999999e-08,0.0,0.0,0.0,8.999999999999999e-08
1531930535.311275,4147,1531930535,311001896,base_link,-0.3126331611202793,0.028612740580561333,0.21399690843725372,-0.925011967935393,1.0,0.0,0.0,0.0,1.0,0.0,0.0,0.0,1.0,0.27465158700942993,0.0022055618464946404,-0.27936652302742004,1.2184696791468346e-07,0.0,0.0,0.0,1.2184696791468346e-07,0.0,0.0,0.0,1.2184696791468346e-07,0.04903325,0.12748645000000108,8.85540495,8.999999999999999e-08,0.0,0.0,0.0,8.999999999999999e-08,0.0,0.0,0.0,8.999999999999999e-08
1531930535.5437067,4148,1531930535,543450632,base_link,-0.33894646222053826,0.037205671590467684,0.24452838375079666,-0.9077097021018925,1.0,0.0,0.0,0.0,1.0,0.0,0.0,0.0,1.0,0.21600379049777985,-0.12904955446720126,-0.2449596673250198,1.2184696791468346e-07,0.0,0.0,0.0,1.2184696791468346e-07,0.0,0.0,0.0,1.2184696791468346e-07,0.2353596,0.04903325000000103,8.42391235,8.999999999999999e-08,0.0,0.0,0.0,8.999999999999999e-08,0.0,0.0,0.0,8.999999999999999e-08
1531930536.0461094,4149,1531930536,45829128,base_link,-0.39318665410930786,0.09051503410832078,0.3018617905129773,-0.8637654444691548,1.0,0.0,0.0,0.0,1.0,0.0,0.0,0.0,1.0,0.3850405216217041,-0.21019418537616733,-0.18691171705722806,1.2184696791468346e-07,0.0,0.0,0.0,1.2184696791468346e-07,0.0,0.0,0.0,1.2184696791468346e-07,0.8433719,0.7354987500000016,13.34685065,8.999999999999999e-08,0.0,0.0,0.0,8.999999999999999e-08,0.0,0.0,0.0,8.999999999999999e-08
1531930536.5026114,4150,1531930536,502235624,base_link,-0.37256497043837405,0.13241119680390948,0.38598670292957665,-0.8334727847535064,1.0,0.0,0.0,0.0,1.0,0.0,0.0,0.0,1.0,-0.14311087131500244,-0.29712012410163885,-0.3383611142635345,1.2184696791468346e-07,0.0,0.0,0.0,1.2184696791468346e-07,0.0,0.0,0.0,1.2184696791468346e-07,2.01036325,0.6570455500000019,15.200307500000001,8.999999999999999e-08,0.0,0.0,0.0,8.999999999999999e-08,0.0,0.0,0.0,8.999999999999999e-08
1531930536.7757175,4151,1531930536,774864104,base_link,-0.3374873312348107,0.15642942728713607,0.443288076091796,-0.8155536874599105,1.0,0.0,0.0,0.0,1.0,0.0,0.0,0.0,1.0,-0.23371317982673645,-0.3900598585605622,-0.30098861455917353,1.2184696791468346e-07,0.0,0.0,0.0,1.2184696791468346e-07,0.0,0.0,0.0,1.2184696791468346e-07,2.0790098,0.9414384000000023,19.2602606,8.999999999999999e-08,0.0,0.0,0.0,8.999999999999999e-08,0.0,0.0,0.0,8.999999999999999e-08
1531930537.1353562,4152,1531930537,134967336,base_link,-0.3057088951829466,0.17677744400882925,0.5090639826661288,-0.7849494685951615,1.0,0.0,0.0,0.0,1.0,0.0,0.0,0.0,1.0,-0.10291150957345963,-0.34784248471260076,-0.27191501855850214,1.2184696791468346e-07,0.0,0.0,0.0,1.2184696791468346e-07,0.0,0.0,0.0,1.2184696791468346e-07,1.5102241,0.47071920000000184,14.6315218,8.999999999999999e-08,0.0,0.0,0.0,8.999999999999999e-08,0.0,0.0,0.0,8.999999999999999e-08
1531930537.4033751,4153,1531930537,403061960,base_link,-0.2860479943940895,0.20373991099299224,0.5540723956504011,-0.7547651117731344,1.0,0.0,0.0,0.0,1.0,0.0,0.0,0.0,1.0,0.13597024977207184,-0.4008504450321198,-0.2842752337455749,1.2184696791468346e-07,0.0,0.0,0.0,1.2184696791468346e-07,0.0,0.0,0.0,1.2184696791468346e-07,1.8632635,0.19613300000000175,14.36674225,8.999999999999999e-08,0.0,0.0,0.0,8.999999999999999e-08,0.0,0.0,0.0,8.999999999999999e-08
1531930537.7456987,4154,1531930537,744325256,base_link,-0.26600856418594954,0.2454561662445306,0.59888652286238,-0.7143708049508148,1.0,0.0,0.0,0.0,1.0,0.0,0.0,0.0,1.0,0.1252695918083191,-0.4012308716773987,-0.2243469208478927,1.2184696791468346e-07,0.0,0.0,0.0,1.2184696791468346e-07,0.0,0.0,0.0,1.2184696791468346e-07,2.16726965,0.34323275000000186,15.563153550000001,8.999999999999999e-08,0.0,0.0,0.0,8.999999999999999e-08,0.0,0.0,0.0,8.999999999999999e-08
1531930538.1071424,4155,1531930538,106704136,base_link,-0.24037062082436167,0.28961448211604235,0.6412089139193127,-0.6687275567101919,1.0,0.0,0.0,0.0,1.0,0.0,0.0,0.0,1.0,-0.0010429061949253082,-0.30654859542846685,-0.2546789348125457,1.2184696791468346e-07,0.0,0.0,0.0,1.2184696791468346e-07,0.0,0.0,0.0,1.2184696791468346e-07,1.96133,0.6570455500000021,16.857631350000002,8.999999999999999e-08,0.0,0.0,0.0,8.999999999999999e-08,0.0,0.0,0.0,8.999999999999999e-08
1531930538.4033039,4156,1531930538,402811816,base_link,0.2136735849998395,-0.3041754439840969,-0.6803994360339579,0.6315674990015445,1.0,0.0,0.0,0.0,1.0,0.0,0.0,0.0,1.0,-0.20575577020645142,-0.1564450562000275,-0.26566410064697266,1.2184696791468346e-07,0.0,0.0,0.0,1.2184696791468346e-07,0.0,0.0,0.0,1.2184696791468346e-07,1.5298374,0.3628460500000015,12.13082605,8.999999999999999e-08,0.0,0.0,0.0,8.999999999999999e-08,0.0,0.0,0.0,8.999999999999999e-08
1531930538.8638566,4157,1531930538,863527112,base_link,0.1432164279340601,-0.27738244749450786,-0.749311984806003,0.5840201897347836,1.0,0.0,0.0,0.0,1.0,0.0,0.0,0.0,1.0,-0.6433936357498169,-0.3761390745639801,-0.22571994364261622,1.2184696791468346e-07,0.0,0.0,0.0,1.2184696791468346e-07,0.0,0.0,0.0,1.2184696791468346e-07,1.0983448,0.5589790500000021,17.26951065,8.999999999999999e-08,0.0,0.0,0.0,8.999999999999999e-08,0.0,0.0,0.0,8.999999999999999e-08
1531930539.2144136,4158,1531930539,214003144,base_link,0.053566311885616495,-0.21721457678256406,-0.7946957177300138,0.5642758138408224,1.0,0.0,0.0,0.0,1.0,0.0,0.0,0.0,1.0,-0.6511123776435852,-0.24914975464344027,-0.15068708360195157,1.2184696791468346e-07,0.0,0.0,0.0,1.2184696791468346e-07,0.0,0.0,0.0,1.2184696791468346e-07,0.18632635,0.5883990000000014,11.58165365,8.999999999999999e-08,0.0,0.0,0.0,8.999999999999999e-08,0.0,0.0,0.0,8.999999999999999e-08
1531930539.5113084,4159,1531930539,510926440,base_link,-0.009568307596015698,-0.15617290003112344,-0.8267107835309723,0.5404329312497738,1.0,0.0,0.0,0.0,1.0,0.0,0.0,0.0,1.0,-0.657069206237793,-0.04885050654411318,-0.16564539074897766,1.2184696791468346e-07,0.0,0.0,0.0,1.2184696791468346e-07,0.0,0.0,0.0,1.2184696791468346e-07,-0.36284605000000003,0.45110590000000134,10.895188150000001,8.999999999999999e-08,0.0,0.0,0.0,8.999999999999999e-08,0.0,0.0,0.0,8.999999999999999e-08
1531930539.9829667,4160,1531930539,982701256,base_link,-0.10205749682147723,-0.039328496992419734,-0.8419011607431454,0.5284316154491482,1.0,0.0,0.0,0.0,1.0,0.0,0.0,0.0,1.0,-0.7872117757797241,0.04209147393703461,-0.007797611411660915,1.2184696791468346e-07,0.0,0.0,0.0,1.2184696791468346e-07,0.0,0.0,0.0,1.2184696791468346e-07,-0.9022118,0.9414384000000017,13.4743371,8.999999999999999e-08,0.0,0.0,0.0,8.999999999999999e-08,0.0,0.0,0.0,8.999999999999999e-08
1531930540.3436894,4161,1531930540,343353352,base_link,-0.13202033758493803,0.026092079354058457,-0.8555152041306396,0.49998356909027586,1.0,0.0,0.0,0.0,1.0,0.0,0.0,0.0,1.0,-0.2447201907634735,0.04452883824706077,-0.07808639109134674,1.2184696791468346e-07,0.0,0.0,0.0,1.2184696791468346e-07,0.0,0.0,0.0,1.2184696791468346e-07,-1.32389775,-0.3236194499999987,10.85596155,8.999999999999999e-08,0.0,0.0,0.0,8.999999999999999e-08,0.0,0.0,0.0,8.999999999999999e-08
1531930540.698026,4162,1531930540,696828936,base_link,-0.12905249053396875,0.09593012019960365,-0.8502224377016281,0.5012630777886705,1.0,0.0,0.0,0.0,1.0,0.0,0.0,0.0,1.0,-0.4400026500225067,0.26010990142822266,0.12058980017900464,1.2184696791468346e-07,0.0,0.0,0.0,1.2184696791468346e-07,0.0,0.0,0.0,1.2184696791468346e-07,-0.93163175,-0.08825984999999933,5.4524974,8.999999999999999e-08,0.0,0.0,0.0,8.999999999999999e-08,0.0,0.0,0.0,8.999999999999999e-08
1531930541.1603534,4163,1531930541,159856008,base_link,-0.10773949230401694,0.18430169531984408,-0.8379321740407871,0.5022895167207697,1.0,0.0,0.0,0.0,1.0,0.0,0.0,0.0,1.0,-0.29750046133995056,0.15560808777809143,0.07790295034646987,1.2184696791468346e-07,0.0,0.0,0.0,1.2184696791468346e-07,0.0,0.0,0.0,1.2184696791468346e-07,-1.4121576,-0.26477954999999953,3.6873004,8.999999999999999e-08,0.0,0.0,0.0,8.999999999999999e-08,0.0,0.0,0.0,8.999999999999999e-08
1531930541.6456418,4164,1531930541,645424392,base_link,-0.08091660971116794,0.2198543634099728,-0.8151906879206567,0.529698691229167,1.0,0.0,0.0,0.0,1.0,0.0,0.0,0.0,1.0,0.05965884402394295,0.21264019608497622,0.24897475540637967,1.2184696791468346e-07,0.0,0.0,0.0,1.2184696791468346e-07,0.0,0.0,0.0,1.2184696791468346e-07,-1.3925443,5.560483012713436e-16,4.54047895,8.999999999999999e-08,0.0,0.0,0.0,8.999999999999999e-08,0.0,0.0,0.0,8.999999999999999e-08
1531930541.9612288,4165,1531930541,960967880,base_link,-0.041571278599916585,0.22079583121903446,-0.7986050943177735,0.5583466065461167,1.0,0.0,0.0,0.0,1.0,0.0,0.0,0.0,1.0,-0.03357511758804321,0.1479563415050507,0.2428910434246063,1.2184696791468346e-07,0.0,0.0,0.0,1.2184696791468346e-07,0.0,0.0,0.0,1.2184696791468346e-07,-1.4709975,-0.10787314999999925,6.0605097,8.999999999999999e-08,0.0,0.0,0.0,8.999999999999999e-08,0.0,0.0,0.0,8.999999999999999e-08
1531930542.3663886,4166,1531930542,366175752,base_link,-0.015447487574408942,0.2255318767669859,-0.7642988239470676,0.6039404402776227,1.0,0.0,0.0,0.0,1.0,0.0,0.0,0.0,1.0,0.061564818024635315,0.033864989876747166,0.26896268129348755,1.2184696791468346e-07,0.0,0.0,0.0,1.2184696791468346e-07,0.0,0.0,0.0,1.2184696791468346e-07,-1.61809725,-0.03922659999999908,7.54131385,8.999999999999999e-08,0.0,0.0,0.0,8.999999999999999e-08,0.0,0.0,0.0,8.999999999999999e-08
1531930542.6478922,4167,1531930542,647607048,base_link,-0.023663328791206233,0.2379608261126673,-0.7468955252969469,0.6204528720198609,1.0,0.0,0.0,0.0,1.0,0.0,0.0,0.0,1.0,-0.13392964005470276,0.02954331412911416,0.08175596594810486,1.2184696791468346e-07,0.0,0.0,0.0,1.2184696791468346e-07,0.0,0.0,0.0,1.2184696791468346e-07,-1.40235095,0.5295591000000013,10.16949605,8.999999999999999e-08,0.0,0.0,0.0,8.999999999999999e-08,0.0,0.0,0.0,8.999999999999999e-08
1531930543.0568638,4168,1531930543,56451624,base_link,-0.019608425988954997,0.22319304815335858,-0.7498758995296588,0.6224841429232022,1.0,0.0,0.0,0.0,1.0,0.0,0.0,0.0,1.0,0.2566353380680084,-0.07362703979015349,0.061770636588335044,1.2184696791468346e-07,0.0,0.0,0.0,1.2184696791468346e-07,0.0,0.0,0.0,1.2184696791468346e-07,-1.30428445,-0.6472388999999993,6.20760945,8.999999999999999e-08,0.0,0.0,0.0,8.999999999999999e-08,0.0,0.0,0.0,8.999999999999999e-08
1531930543.4429293,4169,1531930543,442665736,base_link,0.0537329883155283,0.11812361919782455,-0.7538199478143001,0.6441390089348236,1.0,0.0,0.0,0.0,1.0,0.0,0.0,0.0,1.0,0.7220678925514221,-0.046192161738872514,0.11689913272857666,1.2184696791468346e-07,0.0,0.0,0.0,1.2184696791468346e-07,0.0,0.0,0.0,1.2184696791468346e-07,-1.0002783,-0.1961329999999984,13.0036179,8.999999999999999e-08,0.0,0.0,0.0,8.999999999999999e-08,0.0,0.0,0.0,8.999999999999999e-08
1531930544.0109315,4170,1531930544,10681384,base_link,0.16142221274106922,-0.047791537464129355,-0.752471225611735,0.6367463331711974,1.0,0.0,0.0,0.0,1.0,0.0,0.0,0.0,1.0,0.7061290740966797,-0.12672662734985352,-0.060229156166315065,1.2184696791468346e-07,0.0,0.0,0.0,1.2184696791468346e-07,0.0,0.0,0.0,1.2184696791468346e-07,-0.9414384,0.4314926000000013,10.4931155,8.999999999999999e-08,0.0,0.0,0.0,8.999999999999999e-08,0.0,0.0,0.0,8.999999999999999e-08
1531930544.3562212,4171,1531930544,355961576,base_link,0.21061713468410773,-0.14347326431705673,-0.7618577475003747,0.5955070256322083,1.0,0.0,0.0,0.0,1.0,0.0,0.0,0.0,1.0,0.6012202501296997,-0.214605987071991,-0.16183453798294065,1.2184696791468346e-07,0.0,0.0,0.0,1.2184696791468346e-07,0.0,0.0,0.0,1.2184696791468346e-07,-0.588399,0.058839900000001236,10.13026945,8.999999999999999e-08,0.0,0.0,0.0,8.999999999999999e-08,0.0,0.0,0.0,8.999999999999999e-08
1531930544.7206917,4172,1531930544,720073000,base_link,0.22019068333622804,-0.21106454658939175,-0.7735610083851422,0.5554918419302853,1.0,0.0,0.0,0.0,1.0,0.0,0.0,0.0,1.0,0.2589331567287445,-0.2298996597528458,-0.2597345113754272,1.2184696791468346e-07,0.0,0.0,0.0,1.2184696791468346e-07,0.0,0.0,0.0,1.2184696791468346e-07,0.20593965,0.7845320000000016,12.34657235,8.999999999999999e-08,0.0,0.0,0.0,8.999999999999999e-08,0.0,0.0,0.0,8.999999999999999e-08
1531930545.1387732,4173,1531930545,138334792,base_link,0.21371612894128866,-0.26803864590486515,-0.8102718065132206,0.47533177897300216,1.0,0.0,0.0,0.0,1.0,0.0,0.0,0.0,1.0,0.39138075709342957,-0.35703337192535406,-0.3660487830638885,1.2184696791468346e-07,0.0,0.0,0.0,1.2184696791468346e-07,0.0,0.0,0.0,1.2184696791468346e-07,0.5687857000000001,0.1274864500000018,14.660941750000001,8.999999999999999e-08,0.0,0.0,0.0,8.999999999999999e-08,0.0,0.0,0.0,8.999999999999999e-08
1531930545.6391034,4174,1531930545,638870280,base_link,0.17151308010194768,-0.32720082012377083,-0.8483651040978529,0.37920909379037004,1.0,0.0,0.0,0.0,1.0,0.0,0.0,0.0,1.0,-0.01718967780470848,-0.42559382319450384,-0.38896349072456354,1.2184696791468346e-07,0.0,0.0,0.0,1.2184696791468346e-07,0.0,0.0,0.0,1.2184696791468346e-07,1.65732385,1.049311550000002,17.2204774,8.999999999999999e-08,0.0,0.0,0.0,8.999999999999999e-08,0.0,0.0,0.0,8.999999999999999e-08
1531930546.041656,4175,1531930546,41351368,base_link,0.1323638515124081,-0.3611644131197822,-0.8801402096869848,0.2781964931497071,1.0,0.0,0.0,0.0,1.0,0.0,0.0,0.0,1.0,-0.10854483395814896,-0.4800598621368409,-0.3150841295719146,1.2184696791468346e-07,0.0,0.0,0.0,1.2184696791468346e-07,0.0,0.0,0.0,1.2184696791468346e-07,1.7651970000000001,0.7060788000000021,16.58304515,8.999999999999999e-08,0.0,0.0,0.0,8.999999999999999e-08,0.0,0.0,0.0,8.999999999999999e-08
1531930546.3492765,4176,1531930546,349020776,base_link,0.10013633688607497,-0.3695746770373431,-0.8973275677556509,0.21952336612194515,1.0,0.0,0.0,0.0,1.0,0.0,0.0,0.0,1.0,0.05224739760160446,-0.36027500033378607,-0.23391593992710108,1.2184696791468346e-07,0.0,0.0,0.0,1.2184696791468346e-07,0.0,0.0,0.0,1.2184696791468346e-07,1.6082906000000001,0.44129925000000175,14.033316150000001,8.999999999999999e-08,0.0,0.0,0.0,8.999999999999999e-08,0.0,0.0,0.0,8.999999999999999e-08
1531930546.7976468,4177,1531930546,797426664,base_link,0.030542804753358847,-0.37797041479467136,-0.9143811513943982,0.14181894299562675,1.0,0.0,0.0,0.0,1.0,0.0,0.0,0.0,1.0,0.017672766000032425,-0.41317272186279297,-0.21332468092441553,1.2184696791468346e-07,0.0,0.0,0.0,1.2184696791468346e-07,0.0,0.0,0.0,1.2184696791468346e-07,1.5886773,0.6962721500000024,19.8682729,8.999999999999999e-08,0.0,0.0,0.0,8.999999999999999e-08,0.0,0.0,0.0,8.999999999999999e-08
1531930547.2859657,4178,1531930547,285373512,base_link,-0.031189038152768966,-0.3802535996160712,-0.9218570371773634,0.06792677590390171,1.0,0.0,0.0,0.0,1.0,0.0,0.0,0.0,1.0,-0.25361815094947815,-0.3340230882167816,-0.19111800193786618,1.2184696791468346e-07,0.0,0.0,0.0,1.2184696791468346e-07,0.0,0.0,0.0,1.2184696791468346e-07,1.67693715,0.5982056500000018,14.68055505,8.999999999999999e-08,0.0,0.0,0.0,8.999999999999999e-08,0.0,0.0,0.0,8.999999999999999e-08
1531930547.7154186,4179,1531930547,715086824,base_link,-0.04815827588211616,-0.35752165247285905,-0.9323680819154218,-0.02342665794549982,1.0,0.0,0.0,0.0,1.0,0.0,0.0,0.0,1.0,-0.28141453862190247,-0.2288931161165238,-0.38946196436882013,1.2184696791468346e-07,0.0,0.0,0.0,1.2184696791468346e-07,0.0,0.0,0.0,1.2184696791468346e-07,1.46119085,0.3824593500000016,13.0428445,8.999999999999999e-08,0.0,0.0,0.0,8.999999999999999e-08,0.0,0.0,0.0,8.999999999999999e-08
1531930548.1254492,4180,1531930548,125045800,base_link,-0.06346996061552411,-0.2643046119883116,-0.9576107735280674,-0.095374224002862,1.0,0.0,0.0,0.0,1.0,0.0,0.0,0.0,1.0,-0.6266304850578308,-0.14823964238166812,-0.27654290199279785,1.2184696791468346e-07,0.0,0.0,0.0,1.2184696791468346e-07,0.0,0.0,0.0,1.2184696791468346e-07,0.8433719,0.3922660000000017,14.2196425,8.999999999999999e-08,0.0,0.0,0.0,8.999999999999999e-08,0.0,0.0,0.0,8.999999999999999e-08
1531930548.4174397,4181,1531930548,417118024,base_link,-0.07383544024937704,-0.18586346362150796,-0.9705448492217337,-0.13433464297402709,1.0,0.0,0.0,0.0,1.0,0.0,0.0,0.0,1.0,-0.5201306939125061,-0.21136891841888428,-0.11153298616409299,1.2184696791468346e-07,0.0,0.0,0.0,1.2184696791468346e-07,0.0,0.0,0.0,1.2184696791468346e-07,0.00980665,0.19613300000000167,13.73911665,8.999999999999999e-08,0.0,0.0,0.0,8.999999999999999e-08,0.0,0.0,0.0,8.999999999999999e-08
1531930548.7591476,4182,1531930548,758407048,base_link,-0.08737543944661802,-0.08740287353705146,-0.9791570655690208,-0.1611760255907822,1.0,0.0,0.0,0.0,1.0,0.0,0.0,0.0,1.0,-0.8788891434669495,-0.01694587990641595,-0.08485235273838043,1.2184696791468346e-07,0.0,0.0,0.0,1.2184696791468346e-07,0.0,0.0,0.0,1.2184696791468346e-07,-0.12748645,0.1569064000000019,15.3572139,8.999999999999999e-08,0.0,0.0,0.0,8.999999999999999e-08,0.0,0.0,0.0,8.999999999999999e-08
1531930549.204915,4183,1531930549,204677448,base_link,-0.06573934199394091,0.04135761596204953,-0.979386317373694,-0.18646803441162102,1.0,0.0,0.0,0.0,1.0,0.0,0.0,0.0,1.0,-0.4927915632724762,-0.06338132917881012,-0.05464792996644973,1.2184696791468346e-07,0.0,0.0,0.0,1.2184696791468346e-07,0.0,0.0,0.0,1.2184696791468346e-07,-0.65704555,-0.3040061499999987,10.38524235,8.999999999999999e-08,0.0,0.0,0.0,8.999999999999999e-08,0.0,0.0,0.0,8.999999999999999e-08
1531930549.6337745,4184,1531930549,633424488,base_link,-0.0500169448844545,0.09249280929229398,-0.9774648212789772,-0.18304619257362986,1.0,0.0,0.0,0.0,1.0,0.0,0.0,0.0,1.0,-0.257805734872818,0.10486028343439102,0.028674604371190057,1.2184696791468346e-07,0.0,0.0,0.0,1.2184696791468346e-07,0.0,0.0,0.0,1.2184696791468346e-07,-0.7256921000000001,0.1176798000000009,7.46286065,8.999999999999999e-08,0.0,0.0,0.0,8.999999999999999e-08,0.0,0.0,0.0,8.999999999999999e-08
1531930550.0016606,4185,1531930550,1193960,base_link,-0.016435844790560747,0.1254926046515657,-0.9754289589512404,-0.18033251293953034,1.0,0.0,0.0,0.0,1.0,0.0,0.0,0.0,1.0,-0.15673381090164185,0.1774263232946396,0.03470169752836225,1.2184696791468346e-07,0.0,0.0,0.0,1.2184696791468346e-07,0.0,0.0,0.0,1.2184696791468346e-07,-0.93163175,0.009806650000000819,6.6881353,8.999999999999999e-08,0.0,0.0,0.0,8.999999999999999e-08,0.0,0.0,0.0,8.999999999999999e-08
1531930550.3319728,4186,1531930550,330810024,base_link,0.01627229904034462,0.13726130034616435,-0.9733316425502481,-0.1830848473294765,1.0,0.0,0.0,0.0,1.0,0.0,0.0,0.0,1.0,-0.13291165232658386,0.17527011036872864,0.03293898329138754,1.2184696791468346e-07,0.0,0.0,0.0,1.2184696791468346e-07,0.0,0.0,0.0,1.2184696791468346e-07,-1.06892485,-0.2843928499999994,4.9229383,8.999999999999999e-08,0.0,0.0,0.0,8.999999999999999e-08,0.0,0.0,0.0,8.999999999999999e-08
1531930550.8056343,4187,1531930550,805176296,base_link,0.05868777317127232,0.09713617947524236,-0.9801816927773683,-0.16237043161007914,1.0,0.0,0.0,0.0,1.0,0.0,0.0,0.0,1.0,0.14935405552387238,0.2027985751628876,0.1969678848981857,1.2184696791468346e-07,0.0,0.0,0.0,1.2184696791468346e-07,0.0,0.0,0.0,1.2184696791468346e-07,-1.18660465,0.21574630000000064,5.05042475,8.999999999999999e-08,0.0,0.0,0.0,8.999999999999999e-08,0.0,0.0,0.0,8.999999999999999e-08
1531930551.2504838,4188,1531930551,250190184,base_link,0.09343914744141575,0.08888235091875897,-0.9813218849195852,-0.14274596876426532,1.0,0.0,0.0,0.0,1.0,0.0,0.0,0.0,1.0,0.07156345248222351,0.1487954556941986,-0.02018507011234762,1.2184696791468346e-07,0.0,0.0,0.0,1.2184696791468346e-07,0.0,0.0,0.0,1.2184696791468346e-07,-1.18660465,0.41187930000000056,4.4326058,8.999999999999999e-08,0.0,0.0,0.0,8.999999999999999e-08,0.0,0.0,0.0,8.999999999999999e-08
1531930551.7498124,4189,1531930551,749514984,base_link,0.11053764135292672,0.06016405649616704,-0.9827560256545588,-0.13547069863890954,1.0,0.0,0.0,0.0,1.0,0.0,0.0,0.0,1.0,0.10953358560800552,0.029880914837121974,0.07703770697116852,1.2184696791468346e-07,0.0,0.0,0.0,1.2184696791468346e-07,0.0,0.0,0.0,1.2184696791468346e-07,-1.02969825,0.2843928500000012,9.69877685,8.999999999999999e-08,0.0,0.0,0.0,8.999999999999999e-08,0.0,0.0,0.0,8.999999999999999e-08
1531930552.1847084,4190,1531930552,184499720,base_link,0.11233659655866103,0.05283371178288773,-0.9851603289292674,-0.11852516305340743,1.0,0.0,0.0,0.0,1.0,0.0,0.0,0.0,1.0,-0.010579841211438179,-0.015002574771642678,0.054259274154901505,1.2184696791468346e-07,0.0,0.0,0.0,1.2184696791468346e-07,0.0,0.0,0.0,1.2184696791468346e-07,-1.0395049,0.03922660000000085,6.93330155,8.999999999999999e-08,0.0,0.0,0.0,8.999999999999999e-08,0.0,0.0,0.0,8.999999999999999e-08
1531930552.502947,4191,1531930552,502642024,base_link,0.1024185739619104,0.054662354610796375,-0.9868326446772004,-0.11262235166881679,1.0,0.0,0.0,0.0,1.0,0.0,0.0,0.0,1.0,-0.11875759065151215,-0.07423412054777145,0.029217178001999865,1.2184696791468346e-07,0.0,0.0,0.0,1.2184696791468346e-07,0.0,0.0,0.0,1.2184696791468346e-07,-0.63743225,-0.15690639999999856,11.87585315,8.999999999999999e-08,0.0,0.0,0.0,8.999999999999999e-08,0.0,0.0,0.0,8.999999999999999e-08
1531930552.9621744,4192,1531930552,959556488,base_link,0.08257219605554182,0.04651418677653985,-0.99226166441606,-0.08021877708711717,1.0,0.0,0.0,0.0,1.0,0.0,0.0,0.0,1.0,-0.015829626470804214,-0.061836548149585696,0.20692692697048187,1.2184696791468346e-07,0.0,0.0,0.0,1.2184696791468346e-07,0.0,0.0,0.0,1.2184696791468346e-07,-0.6080123,0.06864655000000137,11.22861425,8.999999999999999e-08,0.0,0.0,0.0,8.999999999999999e-08,0.0,0.0,0.0,8.999999999999999e-08
1531930553.4007921,4193,1531930553,400045480,base_link,0.05938571401702503,0.05417044785362308,-0.9938673163720504,-0.07593850800117674,1.0,0.0,0.0,0.0,1.0,0.0,0.0,0.0,1.0,0.05407615751028061,-0.07393771409988405,-0.07833650708198546,1.2184696791468346e-07,0.0,0.0,0.0,1.2184696791468346e-07,0.0,0.0,0.0,1.2184696791468346e-07,0.0,0.2059396500000014,11.32668075,8.999999999999999e-08,0.0,0.0,0.0,8.999999999999999e-08,0.0,0.0,0.0,8.999999999999999e-08
1531930553.7723784,4194,1531930553,771966664,base_link,0.03402449709123419,0.046422776927341626,-0.9950755113012133,-0.08069687843201778,1.0,0.0,0.0,0.0,1.0,0.0,0.0,0.0,1.0,0.01920478604733944,-0.11474528908729553,0.02360843122005464,1.2184696791468346e-07,0.0,0.0,0.0,1.2184696791468346e-07,0.0,0.0,0.0,1.2184696791468346e-07,0.20593965,-0.13729309999999836,13.4351105,8.999999999999999e-08,0.0,0.0,0.0,8.999999999999999e-08,0.0,0.0,0.0,8.999999999999999e-08
1531930554.1699102,4195,1531930554,169521192,base_link,0.011665336171144677,0.028399347358196193,-0.9973966112042465,-0.06524873148136845,1.0,0.0,0.0,0.0,1.0,0.0,0.0,0.0,1.0,0.13450898230075836,-0.08340147137641905,0.08672183007001878,1.2184696791468346e-07,0.0,0.0,0.0,1.2184696791468346e-07,0.0,0.0,0.0,1.2184696791468346e-07,0.1569064,-0.12748644999999875,10.179302700000001,8.999999999999999e-08,0.0,0.0,0.0,8.999999999999999e-08,0.0,0.0,0.0,8.999999999999999e-08
1531930554.4456615,4196,1531930554,445217320,base_link,0.0018111283533368456,0.013872660997705793,-0.9985323966014322,-0.05231942305043741,1.0,0.0,0.0,0.0,1.0,0.0,0.0,0.0,1.0,0.011251257732510567,-0.02884101867675781,0.035342276096344,1.2184696791468346e-07,0.0,0.0,0.0,1.2184696791468346e-07,0.0,0.0,0.0,1.2184696791468346e-07,0.2745862,0.29419950000000133,10.9246081,8.999999999999999e-08,0.0,0.0,0.0,8.999999999999999e-08,0.0,0.0,0.0,8.999999999999999e-08
1531930554.9516838,4197,1531930554,951257704,base_link,-0.010060627381331578,-0.02712922182442061,-0.9979503704869406,-0.05707755377443435,1.0,0.0,0.0,0.0,1.0,0.0,0.0,0.0,1.0,0.2216489166021347,-0.025905532762408257,-0.012402732856571671,1.2184696791468346e-07,0.0,0.0,0.0,1.2184696791468346e-07,0.0,0.0,0.0,1.2184696791468346e-07,0.24516625,0.27458620000000133,10.75789505,8.999999999999999e-08,0.0,0.0,0.0,8.999999999999999e-08,0.0,0.0,0.0,8.999999999999999e-08
1531930555.2496777,4198,1531930555,249325128,base_link,-0.010952105207290515,-0.03576931041985729,-0.9971984268809164,-0.06477580759698798,1.0,0.0,0.0,0.0,1.0,0.0,0.0,0.0,1.0,0.10573914647102356,0.008865185081958757,-0.1154417097568512,1.2184696791468346e-07,0.0,0.0,0.0,1.2184696791468346e-07,0.0,0.0,0.0,1.2184696791468346e-07,0.24516625,0.17651970000000108,8.8063717,8.999999999999999e-08,0.0,0.0,0.0,8.999999999999999e-08,0.0,0.0,0.0,8.999999999999999e-08
1531930555.7659075,4199,1531930555,764715432,base_link,-0.017354936682430076,-0.04279887065030613,-0.9970080302691172,-0.06198427560843495,1.0,0.0,0.0,0.0,1.0,0.0,0.0,0.0,1.0,-0.10438279807567596,0.020133938640356057,-0.04411295801401138,1.2184696791468346e-07,0.0,0.0,0.0,1.2184696791468346e-07,0.0,0.0,0.0,1.2184696791468346e-07,0.3138128,0.6472389000000012,9.28689755,8.999999999999999e-08,0.0,0.0,0.0,8.999999999999999e-08,0.0,0.0,0.0,8.999999999999999e-08
1531930556.1998746,4200,1531930556,199572424,base_link,-0.00859644213161421,-0.019216308843372984,-0.9957525072907168,-0.0896313498802997,1.0,0.0,0.0,0.0,1.0,0.0,0.0,0.0,1.0,-0.019358549267053604,0.037590216845273965,-0.0671517550945282,1.2184696791468346e-07,0.0,0.0,0.0,1.2184696791468346e-07,0.0,0.0,0.0,1.2184696791468346e-07,0.2745862,-0.4314925999999986,11.4737805,8.999999999999999e-08,0.0,0.0,0.0,8.999999999999999e-08,0.0,0.0,0.0,8.999999999999999e-08
1531930556.5192332,4201,1531930556,518929768,base_link,-0.010841333785732835,-0.021547715835168714,-0.9971314903521723,-0.07174226349989593,1.0,0.0,0.0,0.0,1.0,0.0,0.0,0.0,1.0,-0.002642672508955002,-0.012023288756608946,0.1463422030210495,1.2184696791468346e-07,0.0,0.0,0.0,1.2184696791468346e-07,0.0,0.0,0.0,1.2184696791468346e-07,0.3726527,-0.117679799999999,8.11009955,8.999999999999999e-08,0.0,0.0,0.0,8.999999999999999e-08,0.0,0.0,0.0,8.999999999999999e-08
1531930556.8341503,4202,1531930556,831202504,base_link,-0.015927990098761842,0.002613272887278736,-0.9985947815231357,-0.050477046773669154,1.0,0.0,0.0,0.0,1.0,0.0,0.0,0.0,1.0,-0.20266477763652802,-0.04052695259451865,0.11294200271368027,1.2184696791468346e-07,0.0,0.0,0.0,1.2184696791468346e-07,0.0,0.0,0.0,1.2184696791468346e-07,0.36284605000000003,0.23535960000000128,10.4538889,8.999999999999999e-08,0.0,0.0,0.0,8.999999999999999e-08,0.0,0.0,0.0,8.999999999999999e-08
1531930557.2089484,4203,1531930557,208634216,base_link,-0.015059279150237801,-0.005981146068140364,-0.9982576862425468,-0.056736547840555374,1.0,0.0,0.0,0.0,1.0,0.0,0.0,0.0,1.0,-0.06060869246721268,0.03154753893613814,-0.10110529512166977,1.2184696791468346e-07,0.0,0.0,0.0,1.2184696791468346e-07,0.0,0.0,0.0,1.2184696791468346e-07,0.63743225,0.08825985000000121,9.8851032,8.999999999999999e-08,0.0,0.0,0.0,8.999999999999999e-08,0.0,0.0,0.0,8.999999999999999e-08
1531930557.4427586,4204,1531930557,442483080,base_link,-0.010164954632557614,-0.007290035155905811,-0.9977670016221794,-0.0656089899223396,1.0,0.0,0.0,0.0,1.0,0.0,0.0,0.0,1.0,0.03308263048529625,0.05771966278553009,-0.024833612143993385,1.2184696791468346e-07,0.0,0.0,0.0,1.2184696791468346e-07,0.0,0.0,0.0,1.2184696791468346e-07,0.4118793,-0.07845319999999896,8.54159215,8.999999999999999e-08,0.0,0.0,0.0,8.999999999999999e-08,0.0,0.0,0.0,8.999999999999999e-08
1531930557.7480738,4205,1531930557,747810120,base_link,-0.0053557777329524036,0.009537742433949803,-0.9977168620105812,-0.0666439072526378,1.0,0.0,0.0,0.0,1.0,0.0,0.0,0.0,1.0,-0.08669648319482803,0.02041061408817768,0.010538537986576555,1.2184696791468346e-07,0.0,0.0,0.0,1.2184696791468346e-07,0.0,0.0,0.0,1.2184696791468346e-07,0.59820565,-0.1667130499999989,9.1986377,8.999999999999999e-08,0.0,0.0,0.0,8.999999999999999e-08,0.0,0.0,0.0,8.999999999999999e-08
1531930558.1154711,4206,1531930558,114500680,base_link,-0.001791009630598978,0.02088415987834359,-0.9983728089328976,-0.053031863385277045,1.0,0.0,0.0,0.0,1.0,0.0,0.0,0.0,1.0,-0.060127630829811096,0.07054423540830614,0.11655040830373763,1.2184696791468346e-07,0.0,0.0,0.0,1.2184696791468346e-07,0.0,0.0,0.0,1.2184696791468346e-07,0.50013915,0.7354987500000011,8.7671451,8.999999999999999e-08,0.0,0.0,0.0,8.999999999999999e-08,0.0,0.0,0.0,8.999999999999999e-08
1531930558.5186133,4207,1531930558,518156936,base_link,0.005000010236595914,0.04377401228999551,-0.9969492865106497,-0.06442791220872762,1.0,0.0,0.0,0.0,1.0,0.0,0.0,0.0,1.0,0.02270743064582348,0.0030638389289378972,-0.11927348375320435,1.2184696791468346e-07,0.0,0.0,0.0,1.2184696791468346e-07,0.0,0.0,0.0,1.2184696791468346e-07,0.67665885,0.08825985000000117,9.5320638,8.999999999999999e-08,0.0,0.0,0.0,8.999999999999999e-08,0.0,0.0,0.0,8.999999999999999e-08
1531930558.9168231,4208,1531930558,916483784,base_link,-0.00196986019524879,0.029662475855040227,-0.9975377198823134,-0.06351971811142754,1.0,0.0,0.0,0.0,1.0,0.0,0.0,0.0,1.0,-0.07476697862148285,-0.043317597359418855,0.10902240872383118,1.2184696791468346e-07,0.0,0.0,0.0,1.2184696791468346e-07,0.0,0.0,0.0,1.2184696791468346e-07,0.65704555,0.08825985000000124,10.13026945,8.999999999999999e-08,0.0,0.0,0.0,8.999999999999999e-08,0.0,0.0,0.0,8.999999999999999e-08
1531930559.2010174,4209,1531930559,200713640,base_link,-0.00952603141582355,0.03335565835729937,-0.9983363717654233,-0.04605587466617306,1.0,0.0,0.0,0.0,1.0,0.0,0.0,0.0,1.0,0.02911161258816719,-0.05070795118808745,0.11118737608194351,1.2184696791468346e-07,0.0,0.0,0.0,1.2184696791468346e-07,0.0,0.0,0.0,1.2184696791468346e-07,0.61781895,0.4412992500000013,10.7088618,8.999999999999999e-08,0.0,0.0,0.0,8.999999999999999e-08,0.0,0.0,0.0,8.999999999999999e-08
1531930559.6009343,4210,1531930559,600610824,base_link,-0.015493794280257225,0.021386954369627703,-0.9988315015997142,-0.040474336729004246,1.0,0.0,0.0,0.0,1.0,0.0,0.0,0.0,1.0,0.17509596049785614,-0.005418870598077781,-0.05312652513384819,1.2184696791468346e-07,0.0,0.0,0.0,1.2184696791468346e-07,0.0,0.0,0.0,1.2184696791468346e-07,0.67665885,0.6668522000000011,9.6693569,8.999999999999999e-08,0.0,0.0,0.0,8.999999999999999e-08,0.0,0.0,0.0,8.999999999999999e-08
1531930560.0019217,4211,1531930560,1060232,base_link,-0.01971950832611016,-0.03269515326225688,-0.9974760810961729,-0.059863474552978135,1.0,0.0,0.0,0.0,1.0,0.0,0.0,0.0,1.0,0.13339504599571228,-0.0052821319550275855,-0.04386630281805992,1.2184696791468346e-07,0.0,0.0,0.0,1.2184696791468346e-07,0.0,0.0,0.0,1.2184696791468346e-07,0.71588545,0.10787315000000125,10.22833595,8.999999999999999e-08,0.0,0.0,0.0,8.999999999999999e-08,0.0,0.0,0.0,8.999999999999999e-08
1531930560.41241,4212,1531930560,412100008,base_link,-0.026378476460395876,-0.04946952077509285,-0.9964363443453562,-0.06302026786339032,1.0,0.0,0.0,0.0,1.0,0.0,0.0,0.0,1.0,-0.17792148888111115,-0.014246070757508283,-0.03600815683603287,1.2184696791468346e-07,0.0,0.0,0.0,1.2184696791468346e-07,0.0,0.0,0.0,1.2184696791468346e-07,0.8237586,0.5295591000000014,11.32668075,8.999999999999999e-08,0.0,0.0,0.0,8.999999999999999e-08,0.0,0.0,0.0,8.999999999999999e-08
1531930560.753649,4213,1531930560,753381000,base_link,-0.029849962029509788,-0.04077341133397948,-0.9962815789572181,-0.06978197564944061,1.0,0.0,0.0,0.0,1.0,0.0,0.0,0.0,1.0,0.0779348835349083,-0.036702536046504974,-0.013057396747171874,1.2184696791468346e-07,0.0,0.0,0.0,1.2184696791468346e-07,0.0,0.0,0.0,1.2184696791468346e-07,1.0983448,0.058839900000001326,10.83634825,8.999999999999999e-08,0.0,0.0,0.0,8.999999999999999e-08,0.0,0.0,0.0,8.999999999999999e-08
1531930561.1394627,4214,1531930561,135989960,base_link,-0.028568953809851774,-0.038319692468232344,-0.9959740796060966,-0.07583566970851657,1.0,0.0,0.0,0.0,1.0,0.0,0.0,0.0,1.0,0.015962116420269012,-0.002264583483338365,-0.07513205707073212,1.2184696791468346e-07,0.0,0.0,0.0,1.2184696791468346e-07,0.0,0.0,0.0,1.2184696791468346e-07,1.0787315,0.4216859500000013,10.6107953,8.999999999999999e-08,0.0,0.0,0.0,8.999999999999999e-08,0.0,0.0,0.0,8.999999999999999e-08
1531930561.466053,4215,1531930561,465801544,base_link,-0.026599303745238462,-0.04256519880831339,-0.9951667814120468,-0.08440235817004593,1.0,0.0,0.0,0.0,1.0,0.0,0.0,0.0,1.0,0.005208251997828484,0.025709666311740872,-0.02868481352925301,1.2184696791468346e-07,0.0,0.0,0.0,1.2184696791468346e-07,0.0,0.0,0.0,1.2184696791468346e-07,0.8237586,0.05883990000000122,9.93413645,8.999999999999999e-08,0.0,0.0,0.0,8.999999999999999e-08,0.0,0.0,0.0,8.999999999999999e-08
1531930561.7995555,4216,1531930561,799325928,base_link,-0.025160028509686384,-0.06172514181085943,-0.9927700392639736,-0.09982298820226271,1.0,0.0,0.0,0.0,1.0,0.0,0.0,0.0,1.0,0.10810527205467224,0.01895100437104701,-0.09228183329105377,1.2184696791468346e-07,0.0,0.0,0.0,1.2184696791468346e-07,0.0,0.0,0.0,1.2184696791468346e-07,0.53936575,-0.15690639999999884,9.52225715,8.999999999999999e-08,0.0,0.0,0.0,8.999999999999999e-08,0.0,0.0,0.0,8.999999999999999e-08
1531930562.2256584,4217,1531930562,225063368,base_link,-0.02201502514871884,-0.0741019386941119,-0.990993949153344,-0.10933999309920567,1.0,0.0,0.0,0.0,1.0,0.0,0.0,0.0,1.0,-0.034957751631736755,0.019722523167729374,-0.021598592400550846,1.2184696791468346e-07,0.0,0.0,0.0,1.2184696791468346e-07,0.0,0.0,0.0,1.2184696791468346e-07,0.65704555,-0.23535959999999903,8.07087295,8.999999999999999e-08,0.0,0.0,0.0,8.999999999999999e-08,0.0,0.0,0.0,8.999999999999999e-08
1531930562.6190004,4218,1531930562,618690888,base_link,-0.020858634326269193,-0.07908075239767896,-0.9908068074408973,-0.10776373370961267,1.0,0.0,0.0,0.0,1.0,0.0,0.0,0.0,1.0,0.14617104828357697,0.033341847360134125,-0.017872251570224765,1.2184696791468346e-07,0.0,0.0,0.0,1.2184696791468346e-07,0.0,0.0,0.0,1.2184696791468346e-07,0.4118793,0.25497290000000117,9.5320638,8.999999999999999e-08,0.0,0.0,0.0,8.999999999999999e-08,0.0,0.0,0.0,8.999999999999999e-08
1531930563.1165686,4219,1531930563,116339624,base_link,-0.021345521300914008,-0.1330525547124013,-0.9825577930349395,-0.12814667280583075,1.0,0.0,0.0,0.0,1.0,0.0,0.0,0.0,1.0,0.23266300559043884,0.01087468490004538,-0.12068524211645126,1.2184696791468346e-07,0.0,0.0,0.0,1.2184696791468346e-07,0.0,0.0,0.0,1.2184696791468346e-07,0.55897905,0.12748645000000133,10.93441475,8.999999999999999e-08,0.0,0.0,0.0,8.999999999999999e-08,0.0,0.0,0.0,8.999999999999999e-08
1531930563.439035,4220,1531930563,437562408,base_link,-0.022156450921525038,-0.1813083798522021,-0.971708399060274,-0.14973025837702558,1.0,0.0,0.0,0.0,1.0,0.0,0.0,0.0,1.0,0.3019678592681885,0.016874801367521265,-0.16451264917850494,1.2184696791468346e-07,0.0,0.0,0.0,1.2184696791468346e-07,0.0,0.0,0.0,1.2184696791468346e-07,0.4903325,0.22555295000000114,9.2770909,8.999999999999999e-08,0.0,0.0,0.0,8.999999999999999e-08,0.0,0.0,0.0,8.999999999999999e-08
1531930563.914784,4221,1531930563,914048456,base_link,-0.03323280504650814,-0.2526741730604035,-0.945324689966825,-0.20350079478004096,1.0,0.0,0.0,0.0,1.0,0.0,0.0,0.0,1.0,0.14395850896835327,-0.08316019922494891,-0.24098506569862366,1.2184696791468346e-07,0.0,0.0,0.0,1.2184696791468346e-07,0.0,0.0,0.0,1.2184696791468346e-07,0.6080123,0.5785923500000012,9.8262633,8.999999999999999e-08,0.0,0.0,0.0,8.999999999999999e-08,0.0,0.0,0.0,8.999999999999999e-08
1531930564.2699363,4222,1531930564,269539944,base_link,-0.045064163048685095,-0.2703925239123664,-0.9294277090998164,-0.24702477158878006,1.0,0.0,0.0,0.0,1.0,0.0,0.0,0.0,1.0,0.017080936580896378,-0.1352697014808655,-0.24981890618801114,1.2184696791468346e-07,0.0,0.0,0.0,1.2184696791468346e-07,0.0,0.0,0.0,1.2184696791468346e-07,0.69627215,0.6962721500000013,10.6696352,8.999999999999999e-08,0.0,0.0,0.0,8.999999999999999e-08,0.0,0.0,0.0,8.999999999999999e-08
1531930564.6407423,4223,1531930564,640519784,base_link,-0.06291652352339523,-0.2961161000765138,-0.9044313060934965,-0.3006006967743391,1.0,0.0,0.0,0.0,1.0,0.0,0.0,0.0,1.0,0.3409750759601593,-0.18555942177772525,-0.33160534501075745,1.2184696791468346e-07,0.0,0.0,0.0,1.2184696791468346e-07,0.0,0.0,0.0,1.2184696791468346e-07,0.73549875,0.09806650000000117,9.48303055,8.999999999999999e-08,0.0,0.0,0.0,8.999999999999999e-08,0.0,0.0,0.0,8.999999999999999e-08
1531930565.0310986,4224,1531930565,30783784,base_link,-0.10492953048797443,-0.3254098466800132,-0.8694030171994437,-0.3567024235967107,1.0,0.0,0.0,0.0,1.0,0.0,0.0,0.0,1.0,0.009771706536412239,-0.27786889672279363,-0.2346527129411697,1.2184696791468346e-07,0.0,0.0,0.0,1.2184696791468346e-07,0.0,0.0,0.0,1.2184696791468346e-07,1.20621795,0.4609125500000015,11.79739995,8.999999999999999e-08,0.0,0.0,0.0,8.999999999999999e-08,0.0,0.0,0.0,8.999999999999999e-08
1531930565.3381276,4225,1531930565,337731848,base_link,-0.13832741214823255,-0.3292854134752078,-0.8434808359694326,-0.4012190459999895,1.0,0.0,0.0,0.0,1.0,0.0,0.0,0.0,1.0,0.039701852947473526,-0.30828306078910833,-0.24135214090347287,1.2184696791468346e-07,0.0,0.0,0.0,1.2184696791468346e-07,0.0,0.0,0.0,1.2184696791468346e-07,1.65732385,0.6766588500000017,14.1608026,8.999999999999999e-08,0.0,0.0,0.0,8.999999999999999e-08,0.0,0.0,0.0,8.999999999999999e-08
1531930565.8478544,4226,1531930565,845507784,base_link,-0.16691826204806107,-0.29406910060329317,-0.8017911513577234,-0.4927398983943571,1.0,0.0,0.0,0.0,1.0,0.0,0.0,0.0,1.0,-0.2611878216266632,-0.28676792979240423,-0.35942223668098444,1.2184696791468346e-07,0.0,0.0,0.0,1.2184696791468346e-07,0.0,0.0,0.0,1.2184696791468346e-07,1.6475172,0.7551120500000017,13.56259695,8.999999999999999e-08,0.0,0.0,0.0,8.999999999999999e-08,0.0,0.0,0.0,8.999999999999999e-08
1531930566.198581,4227,1531930566,198331784,base_link,-0.18262372207594224,-0.2560855956256884,-0.7704202485453947,-0.5545461067209989,1.0,0.0,0.0,0.0,1.0,0.0,0.0,0.0,1.0,0.07351205497980118,-0.2927704751491547,-0.23767368495464322,1.2184696791468346e-07,0.0,0.0,0.0,1.2184696791468346e-07,0.0,0.0,0.0,1.2184696791468346e-07,1.2748645,0.08825985000000183,14.87668805,8.999999999999999e-08,0.0,0.0,0.0,8.999999999999999e-08,0.0,0.0,0.0,8.999999999999999e-08
1531930566.5683186,4228,1531930566,567936008,base_link,-0.204199379058478,-0.2162249110899709,-0.7413169171922125,-0.601663219501492,1.0,0.0,0.0,0.0,1.0,0.0,0.0,0.0,1.0,-0.21783706545829773,-0.27619531750679016,-0.21599918603897092,1.2184696791468346e-07,0.0,0.0,0.0,1.2184696791468346e-07,0.0,0.0,0.0,1.2184696791468346e-07,1.1571847,0.3824593500000017,13.6116302,8.999999999999999e-08,0.0,0.0,0.0,8.999999999999999e-08,0.0,0.0,0.0,8.999999999999999e-08
1531930567.0883062,4229,1531930567,88038184,base_link,-0.19366619367394564,-0.14714791752675732,-0.7056597669582955,-0.6654961976538623,1.0,0.0,0.0,0.0,1.0,0.0,0.0,0.0,1.0,-0.35341089963912964,-0.13588064908981326,-0.22908607125282285,1.2184696791468346e-07,0.0,0.0,0.0,1.2184696791468346e-07,0.0,0.0,0.0,1.2184696791468346e-07,0.77472535,0.6668522000000016,12.1798593,8.999999999999999e-08,0.0,0.0,0.0,8.999999999999999e-08,0.0,0.0,0.0,8.999999999999999e-08
1531930567.4077108,4230,1531930567,407229768,base_link,-0.1574237208144428,-0.09767092532216994,-0.6862560439112626,-0.7033710291637768,1.0,0.0,0.0,0.0,1.0,0.0,0.0,0.0,1.0,-0.31010571122169495,-0.07146033644676211,-0.19464464485645294,1.2184696791468346e-07,0.0,0.0,0.0,1.2184696791468346e-07,0.0,0.0,0.0,1.2184696791468346e-07,0.14709975,0.4707192000000013,10.36562905,8.999999999999999e-08,0.0,0.0,0.0,8.999999999999999e-08,0.0,0.0,0.0,8.999999999999999e-08
1531930567.8237069,4231,1531930567,823429160,base_link,-0.12331925998833719,-0.04920086278863865,-0.6694904435531478,-0.7308585233872502,1.0,0.0,0.0,0.0,1.0,0.0,0.0,0.0,1.0,-0.41760382056236267,-0.04066332802176476,-0.05194814875721931,1.2184696791468346e-07,0.0,0.0,0.0,1.2184696791468346e-07,0.0,0.0,0.0,1.2184696791468346e-07,0.02941995,0.39226600000000134,10.9246081,8.999999999999999e-08,0.0,0.0,0.0,8.999999999999999e-08,0.0,0.0,0.0,8.999999999999999e-08
1531930568.2562876,4232,1531930568,255833736,base_link,-0.07135584786431139,-0.009662112970420323,-0.6564871748639912,-0.7508925194644089,1.0,0.0,0.0,0.0,1.0,0.0,0.0,0.0,1.0,-0.15609964728355408,0.04184050858020781,-0.10596413165330887,1.2184696791468346e-07,0.0,0.0,0.0,1.2184696791468346e-07,0.0,0.0,0.0,1.2184696791468346e-07,-0.40207265000000003,0.27458620000000106,8.924051500000001,8.999999999999999e-08,0.0,0.0,0.0,8.999999999999999e-08,0.0,0.0,0.0,8.999999999999999e-08
1531930568.6428592,4233,1531930568,642035560,base_link,-0.04053877257757277,0.0018552296859009312,-0.6464459291287756,-0.7618797981004289,1.0,0.0,0.0,0.0,1.0,0.0,0.0,0.0,1.0,-0.2027427703142166,0.07838976383209229,-0.04872728139162064,1.2184696791468346e-07,0.0,0.0,0.0,1.2184696791468346e-07,0.0,0.0,0.0,1.2184696791468346e-07,-0.5687857000000001,0.11767980000000101,8.237586,8.999999999999999e-08,0.0,0.0,0.0,8.999999999999999e-08,0.0,0.0,0.0,8.999999999999999e-08
1531930568.9615254,4234,1531930568,961266920,base_link,0.011939453554647811,0.025032371011373056,-0.6393950550705507,-0.7683780276671716,1.0,0.0,0.0,0.0,1.0,0.0,0.0,0.0,1.0,-0.37640175223350525,0.12668395042419434,-0.05502920597791673,1.2184696791468346e-07,0.0,0.0,0.0,1.2184696791468346e-07,0.0,0.0,0.0,1.2184696791468346e-07,-0.5687857000000001,0.254972900000001,8.1787461,8.999999999999999e-08,0.0,0.0,0.0,8.999999999999999e-08,0.0,0.0,0.0,8.999999999999999e-08
1531930569.4399166,4235,1531930569,439643752,base_link,0.0809013536800058,0.049474951138792696,-0.6359465990198926,-0.7658845365834128,1.0,0.0,0.0,0.0,1.0,0.0,0.0,0.0,1.0,-0.2950673997402191,0.10722412168979645,0.049672570079565034,1.2184696791468346e-07,0.0,0.0,0.0,1.2184696791468346e-07,0.0,0.0,0.0,1.2184696791468346e-07,-0.5099458,-0.22555294999999895,8.5317855,8.999999999999999e-08,0.0,0.0,0.0,8.999999999999999e-08,0.0,0.0,0.0,8.999999999999999e-08
1531930569.7726529,4236,1531930569,772276360,base_link,0.11246718102461657,0.049342592682369436,-0.6513628378437242,-0.7487609065756092,1.0,0.0,0.0,0.0,1.0,0.0,0.0,0.0,1.0,-0.10726502537727356,0.0920790731906891,0.15552082657814026,1.2184696791468346e-07,0.0,0.0,0.0,1.2184696791468346e-07,0.0,0.0,0.0,1.2184696791468346e-07,-0.55897905,-0.10787314999999932,5.5113373,8.999999999999999e-08,0.0,0.0,0.0,8.999999999999999e-08,0.0,0.0,0.0,8.999999999999999e-08
1531930570.2737055,4237,1531930570,271236744,base_link,0.12987860711955002,0.03800313937709295,-0.6720907831103228,-0.7279981374071804,1.0,0.0,0.0,0.0,1.0,0.0,0.0,0.0,1.0,-0.10437057167291641,0.05056018382310869,0.10282745212316513,1.2184696791468346e-07,0.0,0.0,0.0,1.2184696791468346e-07,0.0,0.0,0.0,1.2184696791468346e-07,-0.4707192,0.019613300000000996,8.1591328,8.999999999999999e-08,0.0,0.0,0.0,8.999999999999999e-08,0.0,0.0,0.0,8.999999999999999e-08
1531930570.616089,4238,1531930570,614679496,base_link,0.12853350156574378,0.03055282127424113,-0.6817275434992308,-0.7195785019870573,1.0,0.0,0.0,0.0,1.0,0.0,0.0,0.0,1.0,0.05904820188879967,0.002360420301556594,0.05584514141082764,1.2184696791468346e-07,0.0,0.0,0.0,1.2184696791468346e-07,0.0,0.0,0.0,1.2184696791468346e-07,-0.4511059,0.11767980000000135,10.9638347,8.999999999999999e-08,0.0,0.0,0.0,8.999999999999999e-08,0.0,0.0,0.0,8.999999999999999e-08
1531930571.0094934,4239,1531930571,9132904,base_link,0.11520017370918195,0.013189661874448895,-0.6987538226356134,-0.7059022936278999,1.0,0.0,0.0,0.0,1.0,0.0,0.0,0.0,1.0,0.04456372931599617,0.03853874281048776,0.12552140653133392,1.2184696791468346e-07,0.0,0.0,0.0,1.2184696791468346e-07,0.0,0.0,0.0,1.2184696791468346e-07,-0.20593965,-0.20593964999999892,8.73772515,8.999999999999999e-08,0.0,0.0,0.0,8.999999999999999e-08,0.0,0.0,0.0,8.999999999999999e-08
1531930571.3473108,4240,1531930571,347004360,base_link,0.09040214337536263,-0.0067686385680344645,-0.7164279169071237,-0.6917461079624482,1.0,0.0,0.0,0.0,1.0,0.0,0.0,0.0,1.0,0.23079492151737213,-0.08099208027124404,0.1285945028066635,1.2184696791468346e-07,0.0,0.0,0.0,1.2184696791468346e-07,0.0,0.0,0.0,1.2184696791468346e-07,-0.16671305,0.049033250000001236,10.1008495,8.999999999999999e-08,0.0,0.0,0.0,8.999999999999999e-08,0.0,0.0,0.0,8.999999999999999e-08
1531930571.7624748,4241,1531930571,762220264,base_link,0.06796089973744728,-0.02044473618214703,-0.7312662849773165,-0.6783899684729964,1.0,0.0,0.0,0.0,1.0,0.0,0.0,0.0,1.0,0.000599617138504982,-0.03151625022292137,0.006720243021845821,1.2184696791468346e-07,0.0,0.0,0.0,1.2184696791468346e-07,0.0,0.0,0.0,1.2184696791468346e-07,0.06864655,0.6472389000000013,10.6107953,8.999999999999999e-08,0.0,0.0,0.0,8.999999999999999e-08,0.0,0.0,0.0,8.999999999999999e-08
1531930572.2118566,4242,1531930572,211321480,base_link,0.036207391527895615,-0.042404799712326025,-0.713503465909532,-0.6984294251355596,1.0,0.0,0.0,0.0,1.0,0.0,0.0,0.0,1.0,0.22936472296714783,-0.04633427411317827,-0.11530865728855133,1.2184696791468346e-07,0.0,0.0,0.0,1.2184696791468346e-07,0.0,0.0,0.0,1.2184696791468346e-07,0.24516625,0.09806650000000129,10.50292215,8.999999999999999e-08,0.0,0.0,0.0,8.999999999999999e-08,0.0,0.0,0.0,8.999999999999999e-08
1531930572.728064,4243,1531930572,727587144,base_link,-0.014027223986887093,-0.05815149584263351,-0.7038269020305051,-0.7078483824214246,1.0,0.0,0.0,0.0,1.0,0.0,0.0,0.0,1.0,0.032739460468292236,-0.09424784779548645,0.04454421624541284,1.2184696791468346e-07,0.0,0.0,0.0,1.2184696791468346e-07,0.0,0.0,0.0,1.2184696791468346e-07,0.34323275,-0.10787314999999847,12.56231865,8.999999999999999e-08,0.0,0.0,0.0,8.999999999999999e-08,0.0,0.0,0.0,8.999999999999999e-08
1531930573.1004016,4244,1531930573,100160968,base_link,-0.02048300692708189,-0.03818689599504632,-0.7155877694311195,-0.6971774176220024,1.0,0.0,0.0,0.0,1.0,0.0,0.0,0.0,1.0,-0.04146115109324455,-0.04913727939128875,0.07769587635993958,1.2184696791468346e-07,0.0,0.0,0.0,1.2184696791468346e-07,0.0,0.0,0.0,1.2184696791468346e-07,0.38245935,0.6276256000000014,11.8464332,8.999999999999999e-08,0.0,0.0,0.0,8.999999999999999e-08,0.0,0.0,0.0,8.999999999999999e-08
1531930573.5412633,4245,1531930573,540971976,base_link,-0.02588675171588737,-0.03109990671555371,-0.7097212745474271,-0.703319546395989,1.0,0.0,0.0,0.0,1.0,0.0,0.0,0.0,1.0,0.21578556299209595,0.02327012084424494,-0.1534416824579239,1.2184696791468346e-07,0.0,0.0,0.0,1.2184696791468346e-07,0.0,0.0,0.0,1.2184696791468346e-07,0.38245935,0.5295591000000012,9.5712904,8.999999999999999e-08,0.0,0.0,0.0,8.999999999999999e-08,0.0,0.0,0.0,8.999999999999999e-08
1531930574.0112624,4246,1531930574,10435208,base_link,-0.011396478224801837,-0.017120571472488244,-0.6855641662541228,-0.7277216365237581,1.0,0.0,0.0,0.0,1.0,0.0,0.0,0.0,1.0,-0.07253572344779968,-0.021205535158514987,-0.08288884907960892,1.2184696791468346e-07,0.0,0.0,0.0,1.2184696791468346e-07,0.0,0.0,0.0,1.2184696791468346e-07,0.0980665,-0.17651969999999867,10.75789505,8.999999999999999e-08,0.0,0.0,0.0,8.999999999999999e-08,0.0,0.0,0.0,8.999999999999999e-08
1531930574.3539138,4247,1531930574,353541640,base_link,-0.01708446896434132,-0.0165430217593668,-0.6836148940924833,-0.7294553625316619,1.0,0.0,0.0,0.0,1.0,0.0,0.0,0.0,1.0,0.2933366894721985,-0.049834080040454865,-0.027558816596865647,1.2184696791468346e-07,0.0,0.0,0.0,1.2184696791468346e-07,0.0,0.0,0.0,1.2184696791468346e-07,-0.0784532,-0.05883989999999877,10.0420096,8.999999999999999e-08,0.0,0.0,0.0,8.999999999999999e-08,0.0,0.0,0.0,8.999999999999999e-08
1531930574.8246,4248,1531930574,824208552,base_link,-0.03546893855254861,-0.01748690715200832,-0.6949238162820001,-0.7179951615716318,1.0,0.0,0.0,0.0,1.0,0.0,0.0,0.0,1.0,-0.17116975784301758,5.1371753215788446e-05,-0.010984892025589943,1.2184696791468346e-07,0.0,0.0,0.0,1.2184696791468346e-07,0.0,0.0,0.0,1.2184696791468346e-07,0.2353596,0.44129925000000125,10.2773692,8.999999999999999e-08,0.0,0.0,0.0,8.999999999999999e-08,0.0,0.0,0.0,8.999999999999999e-08
1531930575.2663515,4249,1531930575,265919592,base_link,-0.03510318144869495,-0.01360535914051242,-0.6797344999421334,-0.7324914132215172,1.0,0.0,0.0,0.0,1.0,0.0,0.0,0.0,1.0,0.12272758781909943,-0.018989326432347308,-0.07921196520328522,1.2184696791468346e-07,0.0,0.0,0.0,1.2184696791468346e-07,0.0,0.0,0.0,1.2184696791468346e-07,0.2353596,0.16671305000000114,9.32612415,8.999999999999999e-08,0.0,0.0,0.0,8.999999999999999e-08,0.0,0.0,0.0,8.999999999999999e-08
1531930575.6537545,4250,1531930575,653511560,base_link,-0.057105050840655036,-0.02985406088364579,-0.6695608794398588,-0.7399567399118443,1.0,0.0,0.0,0.0,1.0,0.0,0.0,0.0,1.0,0.06988193094730377,-0.016433604061603557,-0.09066346287727356,1.2184696791468346e-07,0.0,0.0,0.0,1.2184696791468346e-07,0.0,0.0,0.0,1.2184696791468346e-07,0.22555295,0.09806650000000121,9.8851032,8.999999999999999e-08,0.0,0.0,0.0,8.999999999999999e-08,0.0,0.0,0.0,8.999999999999999e-08
1531930575.9704075,4251,1531930575,970189576,base_link,-0.09132776018199422,-0.05837245674769975,-0.6559976030766541,-0.7469397842336841,1.0,0.0,0.0,0.0,1.0,0.0,0.0,0.0,1.0,0.3123653531074524,0.0037528220564126864,-0.08518700301647186,1.2184696791468346e-07,0.0,0.0,0.0,1.2184696791468346e-07,0.0,0.0,0.0,1.2184696791468346e-07,0.20593965,0.18632635000000136,11.20900095,8.999999999999999e-08,0.0,0.0,0.0,8.999999999999999e-08,0.0,0.0,0.0,8.999999999999999e-08
1531930576.3012679,4252,1531930576,299244872,base_link,-0.10906116279818175,-0.07748188736581046,-0.6390521245172424,-0.7574395038874981,1.0,0.0,0.0,0.0,1.0,0.0,0.0,0.0,1.0,0.20258255302906036,-0.008724238723516483,-0.15291017293930054,1.2184696791468346e-07,0.0,0.0,0.0,1.2184696791468346e-07,0.0,0.0,0.0,1.2184696791468346e-07,0.0392266,0.10787315000000125,10.2773692,8.999999999999999e-08,0.0,0.0,0.0,8.999999999999999e-08,0.0,0.0,0.0,8.999999999999999e-08
1531930576.7556236,4253,1531930576,755179176,base_link,-0.16271530138922086,-0.12478559112378294,-0.6076599446524502,-0.7672689740936255,1.0,0.0,0.0,0.0,1.0,0.0,0.0,0.0,1.0,0.2871723771095276,-0.01805005222558977,-0.1510712057352066,1.2184696791468346e-07,0.0,0.0,0.0,1.2184696791468346e-07,0.0,0.0,0.0,1.2184696791468346e-07,0.3726527,0.4118793000000011,9.100571200000001,8.999999999999999e-08,0.0,0.0,0.0,8.999999999999999e-08,0.0,0.0,0.0,8.999999999999999e-08
1531930577.1265116,4254,1531930577,126273704,base_link,-0.1811379351030249,-0.15304841188566543,-0.5685865945307972,-0.7877020481157572,1.0,0.0,0.0,0.0,1.0,0.0,0.0,0.0,1.0,-0.021872039884328842,0.006802909076213796,-0.33462727069854736,1.2184696791468346e-07,0.0,0.0,0.0,1.2184696791468346e-07,0.0,0.0,0.0,1.2184696791468346e-07,0.4118793,0.5785923500000009,6.7862018,8.999999999999999e-08,0.0,0.0,0.0,8.999999999999999e-08,0.0,0.0,0.0,8.999999999999999e-08
1531930577.4940143,4255,1531930577,493626504,base_link,-0.18946555233808574,-0.16619188468358023,-0.5143037755996078,-0.8197406226035965,1.0,0.0,0.0,0.0,1.0,0.0,0.0,0.0,1.0,0.13138826191425323,-0.11118316650390629,-0.29782772064208984,1.2184696791468346e-07,0.0,0.0,0.0,1.2184696791468346e-07,0.0,0.0,0.0,1.2184696791468346e-07,0.3138128,0.3334261000000009,7.46286065,8.999999999999999e-08,0.0,0.0,0.0,8.999999999999999e-08,0.0,0.0,0.0,8.999999999999999e-08
1531930577.93324,4256,1531930577,933028328,base_link,-0.2237593755868452,-0.16636438604384984,-0.4635676976401436,-0.8410467422193935,1.0,0.0,0.0,0.0,1.0,0.0,0.0,0.0,1.0,0.35905876755714417,-0.13269327580928805,-0.22817198932170865,1.2184696791468346e-07,0.0,0.0,0.0,1.2184696791468346e-07,0.0,0.0,0.0,1.2184696791468346e-07,0.59820565,0.6178189500000013,10.6107953,8.999999999999999e-08,0.0,0.0,0.0,8.999999999999999e-08,0.0,0.0,0.0,8.999999999999999e-08
1531930578.3034885,4257,1531930578,302959304,base_link,-0.26700943652134446,-0.15982826265659061,-0.41164991578713994,-0.8565659543182712,1.0,0.0,0.0,0.0,1.0,0.0,0.0,0.0,1.0,0.00499645434319973,-0.2176826596260071,-0.20737966895103452,1.2184696791468346e-07,0.0,0.0,0.0,1.2184696791468346e-07,0.0,0.0,0.0,1.2184696791468346e-07,0.85317855,0.6374322500000016,12.5721253,8.999999999999999e-08,0.0,0.0,0.0,8.999999999999999e-08,0.0,0.0,0.0,8.999999999999999e-08
1531930578.7189376,4258,1531930578,718746088,base_link,-0.2948366131675701,-0.13554364475453443,-0.35571439392947735,-0.8764511177777786,1.0,0.0,0.0,0.0,1.0,0.0,0.0,0.0,1.0,-0.06884460151195526,-0.26531112194061285,-0.2631904482841491,1.2184696791468346e-07,0.0,0.0,0.0,1.2184696791468346e-07,0.0,0.0,0.0,1.2184696791468346e-07,1.6082906000000001,0.5001391500000016,12.95458465,8.999999999999999e-08,0.0,0.0,0.0,8.999999999999999e-08,0.0,0.0,0.0,8.999999999999999e-08
1531930579.105255,4259,1531930579,104868840,base_link,-0.3022540298584328,-0.10712659268662604,-0.2874593943417047,-0.9025150919394044,1.0,0.0,0.0,0.0,1.0,0.0,0.0,0.0,1.0,-0.04620576649904251,-0.2756840586662293,-0.31235831975936884,1.2184696791468346e-07,0.0,0.0,0.0,1.2184696791468346e-07,0.0,0.0,0.0,1.2184696791468346e-07,1.89268345,0.6668522000000017,13.2782041,8.999999999999999e-08,0.0,0.0,0.0,8.999999999999999e-08,0.0,0.0,0.0,8.999999999999999e-08
1531930579.4808614,4260,1531930579,480242088,base_link,-0.3183462973127988,-0.08178573546980057,-0.21939163349294694,-0.9186043977764266,1.0,0.0,0.0,0.0,1.0,0.0,0.0,0.0,1.0,0.18991266191005707,-0.2544203698635102,-0.32193648815155024,1.2184696791468346e-07,0.0,0.0,0.0,1.2184696791468346e-07,0.0,0.0,0.0,1.2184696791468346e-07,2.1182364,0.7747253500000016,13.91563635,8.999999999999999e-08,0.0,0.0,0.0,8.999999999999999e-08,0.0,0.0,0.0,8.999999999999999e-08
1531930579.8761263,4261,1531930579,874253736,base_link,-0.3216827929610557,-0.04829531941931094,-0.14213197271644024,-0.9348723149001119,1.0,0.0,0.0,0.0,1.0,0.0,0.0,0.0,1.0,-0.1567726731300354,-0.30869156122207647,-0.3315871655941009,1.2184696791468346e-07,0.0,0.0,0.0,1.2184696791468346e-07,0.0,0.0,0.0,1.2184696791468346e-07,2.46146915,0.7845320000000018,15.200307500000001,8.999999999999999e-08,0.0,0.0,0.0,8.999999999999999e-08,0.0,0.0,0.0,8.999999999999999e-08
1531930580.3481376,4262,1531930580,347759240,base_link,-0.3044055941728429,0.007029841410800074,-0.06391940089746095,-0.9503694680254238,1.0,0.0,0.0,0.0,1.0,0.0,0.0,0.0,1.0,-0.32549038529396057,-0.3410685956478119,-0.20618177950382227,1.2184696791468346e-07,0.0,0.0,0.0,1.2184696791468346e-07,0.0,0.0,0.0,1.2184696791468346e-07,1.75539035,0.5393657500000019,15.023787800000001,8.999999999999999e-08,0.0,0.0,0.0,8.999999999999999e-08,0.0,0.0,0.0,8.999999999999999e-08
1531930580.6435835,4263,1531930580,642967272,base_link,-0.26683679417899137,0.037618676446365365,-0.019388240556333366,-0.9628120567290546,1.0,0.0,0.0,0.0,1.0,0.0,0.0,0.0,1.0,-0.357869029045105,-0.2427179962396622,-0.25699386000633234,1.2184696791468346e-07,0.0,0.0,0.0,1.2184696791468346e-07,0.0,0.0,0.0,1.2184696791468346e-07,1.1964113,0.6766588500000018,14.484422050000001,8.999999999999999e-08,0.0,0.0,0.0,8.999999999999999e-08,0.0,0.0,0.0,8.999999999999999e-08
1531930581.052894,4264,1531930581,52462600,base_link,-0.19057613929133851,0.07206226069837383,0.031947220427310304,-0.978502499139791,1.0,0.0,0.0,0.0,1.0,0.0,0.0,0.0,1.0,-0.3519027531147003,-0.20381341874599457,-0.08181190490722653,1.2184696791468346e-07,0.0,0.0,0.0,1.2184696791468346e-07,0.0,0.0,0.0,1.2184696791468346e-07,0.7453054,0.15690640000000186,14.99436785,8.999999999999999e-08,0.0,0.0,0.0,8.999999999999999e-08,0.0,0.0,0.0,8.999999999999999e-08
1531930581.407803,4265,1531930581,407183048,base_link,-0.09602852471073055,0.08345957936500698,0.05116905263157801,-0.9905527492803619,1.0,0.0,0.0,0.0,1.0,0.0,0.0,0.0,1.0,-0.8257848620414734,0.044159181416034685,-0.08730675280094147,1.2184696791468346e-07,0.0,0.0,0.0,1.2184696791468346e-07,0.0,0.0,0.0,1.2184696791468346e-07,0.02941995,0.7354987500000014,10.8265416,8.999999999999999e-08,0.0,0.0,0.0,8.999999999999999e-08,0.0,0.0,0.0,8.999999999999999e-08
1531930581.7450523,4266,1531930581,744700232,base_link,0.01534511163020862,0.06216566652334151,0.08062666376079108,-0.9946855274636148,1.0,0.0,0.0,0.0,1.0,0.0,0.0,0.0,1.0,-0.6090744733810425,0.11358401924371718,-0.13884301483631137,1.2184696791468346e-07,0.0,0.0,0.0,1.2184696791468346e-07,0.0,0.0,0.0,1.2184696791468346e-07,-0.196133,0.490332500000001,7.8060934,8.999999999999999e-08,0.0,0.0,0.0,8.999999999999999e-08,0.0,0.0,0.0,8.999999999999999e-08
1531930582.1564295,4267,1531930582,156181928,base_link,0.10129576636096299,0.03274031936751894,0.10542379374683014,-0.988712831370709,1.0,0.0,0.0,0.0,1.0,0.0,0.0,0.0,1.0,-0.23995894193649292,0.08568815886974335,0.00023357709869741345,1.2184696791468346e-07,0.0,0.0,0.0,1.2184696791468346e-07,0.0,0.0,0.0,1.2184696791468346e-07,-0.44129925000000003,-0.20593964999999892,8.67888525,8.999999999999999e-08,0.0,0.0,0.0,8.999999999999999e-08,0.0,0.0,0.0,8.999999999999999e-08
1531930582.5892837,4268,1531930582,588979912,base_link,0.12293113050680401,0.006935450832330681,0.08081816383287255,-0.9890946673947618,1.0,0.0,0.0,0.0,1.0,0.0,0.0,0.0,1.0,0.21790538728237152,0.09390435367822648,0.13876290619373322,1.2184696791468346e-07,0.0,0.0,0.0,1.2184696791468346e-07,0.0,0.0,0.0,1.2184696791468346e-07,-0.48052585000000003,0.23535960000000086,6.9725281500000005,8.999999999999999e-08,0.0,0.0,0.0,8.999999999999999e-08,0.0,0.0,0.0,8.999999999999999e-08
1531930583.011196,4269,1531930583,10908424,base_link,0.12341229254706243,-0.024181251083145724,0.07363981090099864,-0.9893239365318103,1.0,0.0,0.0,0.0,1.0,0.0,0.0,0.0,1.0,0.04721339792013168,0.15864256024360657,0.026783054694533327,1.2184696791468346e-07,0.0,0.0,0.0,1.2184696791468346e-07,0.0,0.0,0.0,1.2184696791468346e-07,-0.75511205,0.18632635000000083,6.89407495,8.999999999999999e-08,0.0,0.0,0.0,8.999999999999999e-08,0.0,0.0,0.0,8.999999999999999e-08
1531930583.4142284,4270,1531930583,413736712,base_link,0.10772458147015572,-0.05394146367781051,0.0590996835489343,-0.9909555794523743,1.0,0.0,0.0,0.0,1.0,0.0,0.0,0.0,1.0,-0.00027987267822027206,0.14076009392738345,0.16599200665950772,1.2184696791468346e-07,0.0,0.0,0.0,1.2184696791468346e-07,0.0,0.0,0.0,1.2184696791468346e-07,-0.63743225,0.11767980000000089,7.2176944,8.999999999999999e-08,0.0,0.0,0.0,8.999999999999999e-08,0.0,0.0,0.0,8.999999999999999e-08
1531930583.746867,4271,1531930583,746541512,base_link,0.12740325237052705,-0.07999540739673909,0.036179717657912606,-0.9879575770806333,1.0,0.0,0.0,0.0,1.0,0.0,0.0,0.0,1.0,-0.19343842566013336,0.1606166660785675,0.06402297317981719,1.2184696791468346e-07,0.0,0.0,0.0,1.2184696791468346e-07,0.0,0.0,0.0,1.2184696791468346e-07,-0.85317855,-0.03922659999999922,6.3743225,8.999999999999999e-08,0.0,0.0,0.0,8.999999999999999e-08,0.0,0.0,0.0,8.999999999999999e-08
1531930584.093156,4272,1531930584,92782088,base_link,0.09053750277644396,-0.09733692218767341,0.023229564561345332,-0.990852598270967,1.0,0.0,0.0,0.0,1.0,0.0,0.0,0.0,1.0,0.36797472834587097,0.07118940353393557,0.21351230144500732,1.2184696791468346e-07,0.0,0.0,0.0,1.2184696791468346e-07,0.0,0.0,0.0,1.2184696791468346e-07,-0.71588545,-0.08825984999999875,10.2773692,8.999999999999999e-08,0.0,0.0,0.0,8.999999999999999e-08,0.0,0.0,0.0,8.999999999999999e-08
1531930584.4971206,4273,1531930584,496244776,base_link,0.07891528584751985,-0.11448499754819225,-0.01810025890219514,-0.9901201662544139,1.0,0.0,0.0,0.0,1.0,0.0,0.0,0.0,1.0,-0.1023111417889595,0.0866053029894829,0.12236622720956801,1.2184696791468346e-07,0.0,0.0,0.0,1.2184696791468346e-07,0.0,0.0,0.0,1.2184696791468346e-07,-1.0591182,0.647238900000001,7.5903471,8.999999999999999e-08,0.0,0.0,0.0,8.999999999999999e-08,0.0,0.0,0.0,8.999999999999999e-08
1531930584.9760234,4274,1531930584,975198856,base_link,0.06923557620556271,-0.11923777614992448,-0.015636460513976998,-0.9903253449391767,1.0,0.0,0.0,0.0,1.0,0.0,0.0,0.0,1.0,-0.08027475327253342,-0.005493592470884329,-0.051998648792505264,1.2184696791468346e-07,0.0,0.0,0.0,1.2184696791468346e-07,0.0,0.0,0.0,1.2184696791468346e-07,-1.0983448,0.04903325000000126,10.30678915,8.999999999999999e-08,0.0,0.0,0.0,8.999999999999999e-08,0.0,0.0,0.0,8.999999999999999e-08
1531930585.3094857,4275,1531930585,308086984,base_link,0.08395735908234528,-0.11842396226410885,-0.03921371783997241,-0.9886299668484434,1.0,0.0,0.0,0.0,1.0,0.0,0.0,0.0,1.0,-0.034376390278339386,-0.06735507398843761,0.30830323696136475,1.2184696791468346e-07,0.0,0.0,0.0,1.2184696791468346e-07,0.0,0.0,0.0,1.2184696791468346e-07,-0.89240515,-1.1375713999999995,5.0798447,8.999999999999999e-08,0.0,0.0,0.0,8.999999999999999e-08,0.0,0.0,0.0,8.999999999999999e-08
1531930585.6543996,4276,1531930585,644366728,base_link,0.05512221556903116,-0.11159519143734778,-0.10467771279839527,-0.9866866934554857,1.0,0.0,0.0,0.0,1.0,0.0,0.0,0.0,1.0,0.04668018966913223,-0.10149239003658289,0.3987109959125519,1.2184696791468346e-07,0.0,0.0,0.0,1.2184696791468346e-07,0.0,0.0,0.0,1.2184696791468346e-07,-0.7060788,0.06864655000000135,11.0226746,8.999999999999999e-08,0.0,0.0,0.0,8.999999999999999e-08,0.0,0.0,0.0,8.999999999999999e-08
1531930585.9473424,4277,1531930585,947123400,base_link,0.06972756976997929,-0.09502386245217458,-0.13513422217369847,-0.9837922918869371,1.0,0.0,0.0,0.0,1.0,0.0,0.0,0.0,1.0,-0.12591113150119781,-0.07153498381376266,-0.048588532954454415,1.2184696791468346e-07,0.0,0.0,0.0,1.2184696791468346e-07,0.0,0.0,0.0,1.2184696791468346e-07,-0.50013915,0.8531785500000015,12.8074849,8.999999999999999e-08,0.0,0.0,0.0,8.999999999999999e-08,0.0,0.0,0.0,8.999999999999999e-08
1531930586.4726222,4278,1531930586,472297928,base_link,0.01623001675595834,-0.0739110176796613,-0.10115170011599578,-0.9919889523504292,1.0,0.0,0.0,0.0,1.0,0.0,0.0,0.0,1.0,0.39015769958496094,-0.10507041215896608,-0.12624633312225342,1.2184696791468346e-07,0.0,0.0,0.0,1.2184696791468346e-07,0.0,0.0,0.0,1.2184696791468346e-07,-0.4511059,0.2353596000000014,11.4933938,8.999999999999999e-08,0.0,0.0,0.0,8.999999999999999e-08,0.0,0.0,0.0,8.999999999999999e-08
1531930586.9073365,4279,1531930586,906951400,base_link,-0.05205985245368107,-0.04959027227710325,-0.09361751476691677,-0.9930087298643702,1.0,0.0,0.0,0.0,1.0,0.0,0.0,0.0,1.0,0.18270829319953918,-0.14934857189655304,0.11093306541442872,1.2184696791468346e-07,0.0,0.0,0.0,1.2184696791468346e-07,0.0,0.0,0.0,1.2184696791468346e-07,-0.1372931,-0.1470997499999985,12.1798593,8.999999999999999e-08,0.0,0.0,0.0,8.999999999999999e-08,0.0,0.0,0.0,8.999999999999999e-08
1531930587.35047,4280,1531930587,349144296,base_link,-0.0772376348179153,-0.028291124829508685,-0.10754000438380329,-0.9907921615963395,1.0,0.0,0.0,0.0,1.0,0.0,0.0,0.0,1.0,0.12624047696590424,-0.03371243923902513,-0.08755198866128922,1.2184696791468346e-07,0.0,0.0,0.0,1.2184696791468346e-07,0.0,0.0,0.0,1.2184696791468346e-07,-0.196133,0.7747253500000014,11.2972608,8.999999999999999e-08,0.0,0.0,0.0,8.999999999999999e-08,0.0,0.0,0.0,8.999999999999999e-08
1531930587.7457392,4281,1531930587,745428328,base_link,-0.07094856274229512,-0.021271470068882765,-0.07658947156771312,-0.994307738504981,1.0,0.0,0.0,0.0,1.0,0.0,0.0,0.0,1.0,-0.055474597960710526,-0.0027680080384016223,-0.15267451107501984,1.2184696791468346e-07,0.0,0.0,0.0,1.2184696791468346e-07,0.0,0.0,0.0,1.2184696791468346e-07,-0.24516625,0.06864655000000128,10.46369555,8.999999999999999e-08,0.0,0.0,0.0,8.999999999999999e-08,0.0,0.0,0.0,8.999999999999999e-08
1531930588.3523898,4282,1531930588,352076360,base_link,-0.06114959893984711,-0.015740813481114738,-0.057998857027750594,-0.9963177635292484,1.0,0.0,0.0,0.0,1.0,0.0,0.0,0.0,1.0,-0.14585673809051514,-0.02670237980782986,-0.02805536240339279,1.2184696791468346e-07,0.0,0.0,0.0,1.2184696791468346e-07,0.0,0.0,0.0,1.2184696791468346e-07,-0.4118793,0.32361945000000103,8.73772515,8.999999999999999e-08,0.0,0.0,0.0,8.999999999999999e-08,0.0,0.0,0.0,8.999999999999999e-08
1531930588.6484368,4283,1531930588,648181960,base_link,-0.03965112435025774,-0.01536150512823981,-0.052966599505279655,-0.9976905090431614,1.0,0.0,0.0,0.0,1.0,0.0,0.0,0.0,1.0,-0.24077065289020538,0.019461303949356076,-0.04187644273042679,1.2184696791468346e-07,0.0,0.0,0.0,1.2184696791468346e-07,0.0,0.0,0.0,1.2184696791468346e-07,-0.16671305,0.14709975000000117,9.5124505,8.999999999999999e-08,0.0,0.0,0.0,8.999999999999999e-08,0.0,0.0,0.0,8.999999999999999e-08
1531930589.0251176,4284,1531930589,24819304,base_link,-0.003417056617346987,-0.016399715703782482,-0.04609610318857754,-0.9987965369982701,1.0,0.0,0.0,0.0,1.0,0.0,0.0,0.0,1.0,-0.16139058768749237,0.023262677714228627,-0.03296741843223572,1.2184696791468346e-07,0.0,0.0,0.0,1.2184696791468346e-07,0.0,0.0,0.0,1.2184696791468346e-07,-0.0784532,0.14709975000000128,10.32640245,8.999999999999999e-08,0.0,0.0,0.0,8.999999999999999e-08,0.0,0.0,0.0,8.999999999999999e-08
1531930589.351685,4285,1531930589,351470600,base_link,0.016338403212147294,-0.019149395725506974,-0.0443574522404962,-0.9986985399281194,1.0,0.0,0.0,0.0,1.0,0.0,0.0,0.0,1.0,-0.1121191754937172,0.02254311367869377,0.00913315080106258,1.2184696791468346e-07,0.0,0.0,0.0,1.2184696791468346e-07,0.0,0.0,0.0,1.2184696791468346e-07,-0.1176798,1.3462854119334258e-15,10.99325465,8.999999999999999e-08,0.0,0.0,0.0,8.999999999999999e-08,0.0,0.0,0.0,8.999999999999999e-08
1531930589.7387173,4286,1531930589,738411496,base_link,0.02176110553756991,-0.02347959650212761,-0.05593874116271591,-0.9979208486002338,1.0,0.0,0.0,0.0,1.0,0.0,0.0,0.0,1.0,-0.13111546635627747,0.035429455339908614,0.11782830208539963,1.2184696791468346e-07,0.0,0.0,0.0,1.2184696791468346e-07,0.0,0.0,0.0,1.2184696791468346e-07,-0.2941995,1.1325130628485461e-15,9.24767095,8.999999999999999e-08,0.0,0.0,0.0,8.999999999999999e-08,0.0,0.0,0.0,8.999999999999999e-08
1531930590.1670997,4287,1531930590,166847112,base_link,0.032746046132790384,-0.02888943705150696,-0.0689753479642416,-0.9966621786055332,1.0,0.0,0.0,0.0,1.0,0.0,0.0,0.0,1.0,-0.13163729012012482,0.0439671091735363,0.012680271640419955,1.2184696791468346e-07,0.0,0.0,0.0,1.2184696791468346e-07,0.0,0.0,0.0,1.2184696791468346e-07,-0.4118793,0.34323275000000114,9.22805765,8.999999999999999e-08,0.0,0.0,0.0,8.999999999999999e-08,0.0,0.0,0.0,8.999999999999999e-08
1531930590.6080716,4288,1531930590,607536872,base_link,0.037585140441503524,-0.03855900534045929,-0.06044222805962418,-0.9967182637999241,1.0,0.0,0.0,0.0,1.0,0.0,0.0,0.0,1.0,0.24436628818511963,0.07841869443655013,-0.06362452358007432,1.2184696791468346e-07,0.0,0.0,0.0,1.2184696791468346e-07,0.0,0.0,0.0,1.2184696791468346e-07,-0.30400615,0.14709975000000092,7.50208725,8.999999999999999e-08,0.0,0.0,0.0,8.999999999999999e-08,0.0,0.0,0.0,8.999999999999999e-08
1531930591.061025,4289,1531930591,60696648,base_link,0.035166004241857195,-0.04786012256738933,-0.04758907141958163,-0.9970998150109737,1.0,0.0,0.0,0.0,1.0,0.0,0.0,0.0,1.0,-0.05841928720474243,0.006248580291867254,-0.014891058206558228,1.2184696791468346e-07,0.0,0.0,0.0,1.2184696791468346e-07,0.0,0.0,0.0,1.2184696791468346e-07,-0.36284605000000003,0.04903325000000116,9.4536106,8.999999999999999e-08,0.0,0.0,0.0,8.999999999999999e-08,0.0,0.0,0.0,8.999999999999999e-08
1531930591.457336,4290,1531930591,456894472,base_link,0.03587046656195882,-0.04029154115613685,-0.054136173427432766,-0.9970753111307719,1.0,0.0,0.0,0.0,1.0,0.0,0.0,0.0,1.0,0.2300872802734375,-0.08565638214349747,0.055276073515415206,1.2184696791468346e-07,0.0,0.0,0.0,1.2184696791468346e-07,0.0,0.0,0.0,1.2184696791468346e-07,0.12748645,-0.6374322499999984,13.856796450000001,8.999999999999999e-08,0.0,0.0,0.0,8.999999999999999e-08,0.0,0.0,0.0,8.999999999999999e-08
1531930591.8071504,4291,1531930591,806908008,base_link,-0.009923109497137657,-0.02919042578657963,-0.08279993117735629,-0.9960891638489655,1.0,0.0,0.0,0.0,1.0,0.0,0.0,0.0,1.0,0.1344698667526245,-0.02654171362519262,0.16026844084262848,1.2184696791468346e-07,0.0,0.0,0.0,1.2184696791468346e-07,0.0,0.0,0.0,1.2184696791468346e-07,0.24516625,0.1274864500000014,11.40513395,8.999999999999999e-08,0.0,0.0,0.0,8.999999999999999e-08,0.0,0.0,0.0,8.999999999999999e-08
1531930592.1508815,4292,1531930592,149426088,base_link,-0.0036548444363218037,-0.02210074142665378,-0.08880412886659744,-0.9957971811753553,1.0,0.0,0.0,0.0,1.0,0.0,0.0,0.0,1.0,-0.07418370246887207,-0.01192750222980977,-0.07110558450222015,1.2184696791468346e-07,0.0,0.0,0.0,1.2184696791468346e-07,0.0,0.0,0.0,1.2184696791468346e-07,0.20593965,0.1667130500000012,9.6889702,8.999999999999999e-08,0.0,0.0,0.0,8.999999999999999e-08,0.0,0.0,0.0,8.999999999999999e-08
1531930592.5316844,4293,1531930592,531441704,base_link,0.0010409166244759042,-0.017466277211679166,-0.07201800756893478,-0.9972498444415756,1.0,0.0,0.0,0.0,1.0,0.0,0.0,0.0,1.0,-0.04099568724632263,-0.022502942010760318,-0.07364924997091293,1.2184696791468346e-07,0.0,0.0,0.0,1.2184696791468346e-07,0.0,0.0,0.0,1.2184696791468346e-07,0.04903325,0.3530394000000013,10.179302700000001,8.999999999999999e-08,0.0,0.0,0.0,8.999999999999999e-08,0.0,0.0,0.0,8.999999999999999e-08
1531930592.885818,4294,1531930592,885511336,base_link,-0.014336383722587,-0.011716721082435403,-0.07188859755940313,-0.9972408014565878,1.0,0.0,0.0,0.0,1.0,0.0,0.0,0.0,1.0,0.17613190412521362,-0.04032092541456221,0.10273043811321259,1.2184696791468346e-07,0.0,0.0,0.0,1.2184696791468346e-07,0.0,0.0,0.0,1.2184696791468346e-07,0.2549729,-0.4216859499999987,10.56176205,8.999999999999999e-08,0.0,0.0,0.0,8.999999999999999e-08,0.0,0.0,0.0,8.999999999999999e-08
1531930593.2429838,4295,1531930593,242454696,base_link,-0.03322089502316845,-0.009086293512750986,-0.08865806371583895,-0.9954665032748303,1.0,0.0,0.0,0.0,1.0,0.0,0.0,0.0,1.0,-0.008667372167110443,0.01734367571771145,0.00801887549459934,1.2184696791468346e-07,0.0,0.0,0.0,1.2184696791468346e-07,0.0,0.0,0.0,1.2184696791468346e-07,0.0588399,0.48052585000000125,10.355822400000001,8.999999999999999e-08,0.0,0.0,0.0,8.999999999999999e-08,0.0,0.0,0.0,8.999999999999999e-08
1531930593.64452,4296,1531930593,644114088,base_link,-0.023447605021892737,-0.010272159470018988,-0.07322649317001412,-0.9969867467808092,1.0,0.0,0.0,0.0,1.0,0.0,0.0,0.0,1.0,-0.08764591068029404,0.0072270296514034185,-0.07408937066793442,1.2184696791468346e-07,0.0,0.0,0.0,1.2184696791468346e-07,0.0,0.0,0.0,1.2184696791468346e-07,0.1176798,0.5589790500000014,11.22861425,8.999999999999999e-08,0.0,0.0,0.0,8.999999999999999e-08,0.0,0.0,0.0,8.999999999999999e-08
1531930593.9052799,4297,1531930593,905034536,base_link,-0.02022544033305224,-0.014619625342741778,-0.05940493157935478,-0.9979219670005386,1.0,0.0,0.0,0.0,1.0,0.0,0.0,0.0,1.0,-0.02929484099149704,0.03669011220335959,-0.11072273552417755,1.2184696791468346e-07,0.0,0.0,0.0,1.2184696791468346e-07,0.0,0.0,0.0,1.2184696791468346e-07,-0.1372931,-0.04903324999999888,9.07115125,8.999999999999999e-08,0.0,0.0,0.0,8.999999999999999e-08,0.0,0.0,0.0,8.999999999999999e-08
1531930594.2989998,4298,1531930594,298736360,base_link,-0.016421127146769354,-0.01928337335938308,-0.05136836050527749,-0.9983585476341212,1.0,0.0,0.0,0.0,1.0,0.0,0.0,0.0,1.0,-0.08569233119487762,0.021598784253001213,-0.008223207667469982,1.2184696791468346e-07,0.0,0.0,0.0,1.2184696791468346e-07,0.0,0.0,0.0,1.2184696791468346e-07,0.04903325,0.02941995000000104,8.48275225,8.999999999999999e-08,0.0,0.0,0.0,8.999999999999999e-08,0.0,0.0,0.0,8.999999999999999e-08
1531930594.6570237,4299,1531930594,655048072,base_link,-0.013930837835526299,-0.022623560361457806,-0.048757999534229324,-0.9984571917489461,1.0,0.0,0.0,0.0,1.0,0.0,0.0,0.0,1.0,0.03254050388932228,0.0538882166147232,-0.034041296690702445,1.2184696791468346e-07,0.0,0.0,0.0,1.2184696791468346e-07,0.0,0.0,0.0,1.2184696791468346e-07,0.1176798,0.32361945000000103,8.629852,8.999999999999999e-08,0.0,0.0,0.0,8.999999999999999e-08,0.0,0.0,0.0,8.999999999999999e-08
1531930595.0156434,4300,1531930595,15052808,base_link,-0.013286120300713111,-0.026270509443796056,-0.032438033801155675,-0.9990400959441186,1.0,0.0,0.0,0.0,1.0,0.0,0.0,0.0,1.0,0.08033281564712524,0.0072714295238256324,-0.10561537742614746,1.2184696791468346e-07,0.0,0.0,0.0,1.2184696791468346e-07,0.0,0.0,0.0,1.2184696791468346e-07,0.14709975,0.11767980000000122,10.01258965,8.999999999999999e-08,0.0,0.0,0.0,8.999999999999999e-08,0.0,0.0,0.0,8.999999999999999e-08
1531930595.4678257,4301,1531930595,467505768,base_link,-0.03377293818916534,-0.026939155598186194,-0.019174992850429895,-0.9988823705476604,1.0,0.0,0.0,0.0,1.0,0.0,0.0,0.0,1.0,0.10864856839179993,0.012421835213899612,-0.005978771485388281,1.2184696791468346e-07,0.0,0.0,0.0,1.2184696791468346e-07,0.0,0.0,0.0,1.2184696791468346e-07,0.0980665,-0.254972899999999,8.0806796,8.999999999999999e-08,0.0,0.0,0.0,8.999999999999999e-08,0.0,0.0,0.0,8.999999999999999e-08
1531930595.8409443,4302,1531930595,840538408,base_link,-0.10591711394591044,-0.020900903209908707,-0.025211608145433828,-0.9938355457685645,1.0,0.0,0.0,0.0,1.0,0.0,0.0,0.0,1.0,0.6536700129508972,-0.010160401463508597,0.06513649970293045,1.2184696791468346e-07,0.0,0.0,0.0,1.2184696791468346e-07,0.0,0.0,0.0,1.2184696791468346e-07,0.36284605000000003,0.9120184500000014,10.9442214,8.999999999999999e-08,0.0,0.0,0.0,8.999999999999999e-08,0.0,0.0,0.0,8.999999999999999e-08
1531930596.2086875,4303,1531930596,208011752,base_link,-0.12941453769679476,-0.020343033803808044,-0.0036172367379114236,-0.9913752841415625,1.0,0.0,0.0,0.0,1.0,0.0,0.0,0.0,1.0,0.018637951463460922,0.021547092124819724,-0.2600887417793274,1.2184696791468346e-07,0.0,0.0,0.0,1.2184696791468346e-07,0.0,0.0,0.0,1.2184696791468346e-07,0.392266,0.9218251000000014,11.2972608,8.999999999999999e-08,0.0,0.0,0.0,8.999999999999999e-08,0.0,0.0,0.0,8.999999999999999e-08
1531930596.5497537,4304,1531930596,549415912,base_link,-0.18118069069968376,-0.025695330210241497,0.05105922350185388,-0.9817872799228762,1.0,0.0,0.0,0.0,1.0,0.0,0.0,0.0,1.0,0.5609491467475891,-0.060360498726367985,-0.302193284034729,1.2184696791468346e-07,0.0,0.0,0.0,1.2184696791468346e-07,0.0,0.0,0.0,1.2184696791468346e-07,0.08825985,0.08825985000000104,8.52197885,8.999999999999999e-08,0.0,0.0,0.0,8.999999999999999e-08,0.0,0.0,0.0,8.999999999999999e-08
1531930596.9619308,4305,1531930596,958287144,base_link,-0.30469215834426144,0.0021339458212835064,0.0850078232470709,-0.9486473553990133,1.0,0.0,0.0,0.0,1.0,0.0,0.0,0.0,1.0,0.5345410108566284,-0.14336711168289185,0.00835574325174095,1.2184696791468346e-07,0.0,0.0,0.0,1.2184696791468346e-07,0.0,0.0,0.0,1.2184696791468346e-07,0.5687857000000001,-0.13729309999999859,11.6503002,8.999999999999999e-08,0.0,0.0,0.0,8.999999999999999e-08,0.0,0.0,0.0,8.999999999999999e-08
1531930597.346702,4306,1531930597,346116264,base_link,-0.34384397881497475,0.02149824776732625,0.12688477808207044,-0.9301663274203629,1.0,0.0,0.0,0.0,1.0,0.0,0.0,0.0,1.0,0.08508066833019257,-0.1526442021131516,-0.42498892545700073,1.2184696791468346e-07,0.0,0.0,0.0,1.2184696791468346e-07,0.0,0.0,0.0,1.2184696791468346e-07,0.7256921000000001,1.0591182000000012,9.99297635,8.999999999999999e-08,0.0,0.0,0.0,8.999999999999999e-08,0.0,0.0,0.0,8.999999999999999e-08
1531930597.7688327,4307,1531930597,768287240,base_link,-0.3724478001002456,0.05033921530148393,0.22555526916347945,-0.8988177902978493,1.0,0.0,0.0,0.0,1.0,0.0,0.0,0.0,1.0,0.15167561173439026,-0.348977416753769,-0.26705181598663325,1.2184696791468346e-07,0.0,0.0,0.0,1.2184696791468346e-07,0.0,0.0,0.0,1.2184696791468346e-07,1.2552512,0.019613300000001554,12.7094184,8.999999999999999e-08,0.0,0.0,0.0,8.999999999999999e-08,0.0,0.0,0.0,8.999999999999999e-08
1531930598.0860147,4308,1531930598,83860296,base_link,-0.374545325161028,0.09087813095380061,0.2692350288715362,-0.8825924676445558,1.0,0.0,0.0,0.0,1.0,0.0,0.0,0.0,1.0,0.055489178746938705,-0.36582911014556885,-0.16409830749034876,1.2184696791468346e-07,0.0,0.0,0.0,1.2184696791468346e-07,0.0,0.0,0.0,1.2184696791468346e-07,1.65732385,0.2255529500000018,14.71978165,8.999999999999999e-08,0.0,0.0,0.0,8.999999999999999e-08,0.0,0.0,0.0,8.999999999999999e-08
1531930598.57697,4309,1531930598,576514632,base_link,-0.3652024767958516,0.1445400737309484,0.36441853076556524,-0.8443544590174756,1.0,0.0,0.0,0.0,1.0,0.0,0.0,0.0,1.0,0.02407808043062687,-0.3140971660614014,-0.46301820874214167,1.2184696791468346e-07,0.0,0.0,0.0,1.2184696791468346e-07,0.0,0.0,0.0,1.2184696791468346e-07,1.79461695,1.2454445500000015,12.513285400000001,8.999999999999999e-08,0.0,0.0,0.0,8.999999999999999e-08,0.0,0.0,0.0,8.999999999999999e-08
1531930599.008078,4310,1531930599,7683176,base_link,-0.33904116469967593,0.18200689666543143,0.4566066733548453,-0.802143954694622,1.0,0.0,0.0,0.0,1.0,0.0,0.0,0.0,1.0,0.01672687567770481,-0.4370625019073487,-0.24228292703628534,1.2184696791468346e-07,0.0,0.0,0.0,1.2184696791468346e-07,0.0,0.0,0.0,1.2184696791468346e-07,2.0593965,0.068646550000002,16.3378789,8.999999999999999e-08,0.0,0.0,0.0,8.999999999999999e-08,0.0,0.0,0.0,8.999999999999999e-08
1531930599.4119885,4311,1531930599,411686632,base_link,-0.3065271318379992,0.23660597036805847,0.5223267233831862,-0.7597588606085117,1.0,0.0,0.0,0.0,1.0,0.0,0.0,0.0,1.0,-0.05059819296002388,-0.37727093696594244,-0.2808120250701904,1.2184696791468346e-07,0.0,0.0,0.0,1.2184696791468346e-07,0.0,0.0,0.0,1.2184696791468346e-07,2.0790098,0.5982056500000019,15.4356671,8.999999999999999e-08,0.0,0.0,0.0,8.999999999999999e-08,0.0,0.0,0.0,8.999999999999999e-08
1531930599.6710312,4312,1531930599,670669544,base_link,-0.28374314819585394,0.25401870846265245,0.5694199564592584,-0.7285089119487885,1.0,0.0,0.0,0.0,1.0,0.0,0.0,0.0,1.0,-0.061715081334114075,-0.33125835657119757,-0.3251648545265197,1.2184696791468346e-07,0.0,0.0,0.0,1.2184696791468346e-07,0.0,0.0,0.0,1.2184696791468346e-07,1.87307015,0.8335652500000018,15.2787607,8.999999999999999e-08,0.0,0.0,0.0,8.999999999999999e-08,0.0,0.0,0.0,8.999999999999999e-08
1531930599.9768775,4313,1531930599,976472840,base_link,-0.2390443156695924,0.24798708679252218,0.6348725902472647,-0.6915902067575447,1.0,0.0,0.0,0.0,1.0,0.0,0.0,0.0,1.0,-0.3666899502277374,-0.3304809927940369,-0.3625595569610595,1.2184696791468346e-07,0.0,0.0,0.0,1.2184696791468346e-07,0.0,0.0,0.0,1.2184696791468346e-07,1.77500365,0.7158854500000018,15.1610809,8.999999999999999e-08,0.0,0.0,0.0,8.999999999999999e-08,0.0,0.0,0.0,8.999999999999999e-08
1531930600.2538066,4314,1531930600,253579944,base_link,0.19937541665262945,-0.25600663574039817,-0.6768721017500391,0.6607224860438443,1.0,0.0,0.0,0.0,1.0,0.0,0.0,0.0,1.0,-0.29834240674972534,-0.34511446952819824,-0.20654714107513422,1.2184696791468346e-07,0.0,0.0,0.0,1.2184696791468346e-07,0.0,0.0,0.0,1.2184696791468346e-07,0.97085835,0.5491724000000024,20.182085700000002,8.999999999999999e-08,0.0,0.0,0.0,8.999999999999999e-08,0.0,0.0,0.0,8.999999999999999e-08
1531930600.6329627,4315,1531930600,630070408,base_link,0.14358441030459945,-0.2517102650070428,-0.7180980635831882,0.6327405713921309,1.0,0.0,0.0,0.0,1.0,0.0,0.0,0.0,1.0,-0.4409509003162384,-0.13775174319744113,-0.2411961257457733,1.2184696791468346e-07,0.0,0.0,0.0,1.2184696791468346e-07,0.0,0.0,0.0,1.2184696791468346e-07,0.5491724,0.7256921000000014,11.64049355,8.999999999999999e-08,0.0,0.0,0.0,8.999999999999999e-08,0.0,0.0,0.0,8.999999999999999e-08
1531930601.011427,4316,1531930601,10541032,base_link,0.08211678567184288,-0.19633851916006406,-0.7680673166613711,0.603970708297645,1.0,0.0,0.0,0.0,1.0,0.0,0.0,0.0,1.0,-0.3989983797073364,-0.07139007747173311,-0.1480124443769455,1.2184696791468346e-07,0.0,0.0,0.0,1.2184696791468346e-07,0.0,0.0,0.0,1.2184696791468346e-07,-0.38245935,0.5785923500000013,10.7677017,8.999999999999999e-08,0.0,0.0,0.0,8.999999999999999e-08,0.0,0.0,0.0,8.999999999999999e-08
1531930601.4450293,4317,1531930601,444688072,base_link,0.03159034538825893,-0.12387984087797607,-0.8049703895647017,0.5793776894447611,1.0,0.0,0.0,0.0,1.0,0.0,0.0,0.0,1.0,-0.4824658930301666,-0.010320354253053686,-0.1753043234348297,1.2184696791468346e-07,0.0,0.0,0.0,1.2184696791468346e-07,0.0,0.0,0.0,1.2184696791468346e-07,-0.5687857000000001,0.215746300000001,8.30623255,8.999999999999999e-08,0.0,0.0,0.0,8.999999999999999e-08,0.0,0.0,0.0,8.999999999999999e-08
1531930601.749028,4318,1531930601,748342664,base_link,-0.008892179703563976,-0.04701700837558234,-0.824805379005831,0.5633883357210882,1.0,0.0,0.0,0.0,1.0,0.0,0.0,0.0,1.0,-0.5655842423439026,0.11176141351461409,-0.10981693118810655,1.2184696791468346e-07,0.0,0.0,0.0,1.2184696791468346e-07,0.0,0.0,0.0,1.2184696791468346e-07,-0.8041453000000001,0.05883990000000125,10.1400761,8.999999999999999e-08,0.0,0.0,0.0,8.999999999999999e-08,0.0,0.0,0.0,8.999999999999999e-08
1531930602.1747515,4319,1531930602,174269320,base_link,-0.03356347873270209,0.026650995344099294,-0.83242176869298,0.5524827747075735,1.0,0.0,0.0,0.0,1.0,0.0,0.0,0.0,1.0,-0.34605005383491516,0.1265285760164261,-0.01649730280041696,1.2184696791468346e-07,0.0,0.0,0.0,1.2184696791468346e-07,0.0,0.0,0.0,1.2184696791468346e-07,-1.01008495,-0.049033249999999175,6.77639515,8.999999999999999e-08,0.0,0.0,0.0,8.999999999999999e-08,0.0,0.0,0.0,8.999999999999999e-08
1531930602.5762908,4320,1531930602,573724008,base_link,-0.04781918123080537,0.09579479904347668,-0.8260735493503485,0.5532984488016868,1.0,0.0,0.0,0.0,1.0,0.0,0.0,0.0,1.0,-0.09235496073961258,0.11783210188150406,0.03204812109470366,1.2184696791468346e-07,0.0,0.0,0.0,1.2184696791468346e-07,0.0,0.0,0.0,1.2184696791468346e-07,-1.1179581,0.19613300000000078,6.30567595,8.999999999999999e-08,0.0,0.0,0.0,8.999999999999999e-08,0.0,0.0,0.0,8.999999999999999e-08
1531930602.9716237,4321,1531930602,961895976,base_link,-0.03435706428364593,0.12484697919064167,-0.820715727379187,0.5564696925738483,1.0,0.0,0.0,0.0,1.0,0.0,0.0,0.0,1.0,-0.08720895648002625,0.15355879068374634,0.06201206147670744,1.2184696791468346e-07,0.0,0.0,0.0,1.2184696791468346e-07,0.0,0.0,0.0,1.2184696791468346e-07,-1.2356379,0.009806650000000802,6.54103555,8.999999999999999e-08,0.0,0.0,0.0,8.999999999999999e-08,0.0,0.0,0.0,8.999999999999999e-08
1531930603.3082626,4322,1531930603,304474120,base_link,-0.017411233686805576,0.14398020378077503,-0.8083494767099075,0.5705590884067738,1.0,0.0,0.0,0.0,1.0,0.0,0.0,0.0,1.0,-0.002649291418492794,0.11271972209215166,0.13286161422729492,1.2184696791468346e-07,0.0,0.0,0.0,1.2184696791468346e-07,0.0,0.0,0.0,1.2184696791468346e-07,-1.0983448,-0.1863263499999992,6.52142225,8.999999999999999e-08,0.0,0.0,0.0,8.999999999999999e-08,0.0,0.0,0.0,8.999999999999999e-08
1531930603.7331626,4323,1531930603,732365800,base_link,0.0057182938790646875,0.14899317240600798,-0.7929996533185308,0.5906944095961937,1.0,0.0,0.0,0.0,1.0,0.0,0.0,0.0,1.0,-0.1614609956741333,0.0603964775800705,0.07415367662906645,1.2184696791468346e-07,0.0,0.0,0.0,1.2184696791468346e-07,0.0,0.0,0.0,1.2184696791468346e-07,-1.26505785,0.5687857000000011,8.3552658,8.999999999999999e-08,0.0,0.0,0.0,8.999999999999999e-08,0.0,0.0,0.0,8.999999999999999e-08
1531930604.1168728,4324,1531930604,116427208,base_link,0.00504629282141248,0.16267812437278503,-0.7845602218972301,0.5983106392133455,1.0,0.0,0.0,0.0,1.0,0.0,0.0,0.0,1.0,0.08606371283531189,0.05951405689120294,0.11495917290449141,1.2184696791468346e-07,0.0,0.0,0.0,1.2184696791468346e-07,0.0,0.0,0.0,1.2184696791468346e-07,-1.0983448,-0.402072649999999,8.4533323,8.999999999999999e-08,0.0,0.0,0.0,8.999999999999999e-08,0.0,0.0,0.0,8.999999999999999e-08
1531930604.4077384,4325,1531930604,407026888,base_link,0.020449320421409307,0.1463143202491604,-0.771900113264694,0.6183398419366823,1.0,0.0,0.0,0.0,1.0,0.0,0.0,0.0,1.0,-0.08557696640491486,-0.04201620817184446,0.18232816457748413,1.2184696791468346e-07,0.0,0.0,0.0,1.2184696791468346e-07,0.0,0.0,0.0,1.2184696791468346e-07,-0.83356525,0.029419950000001024,8.3552658,8.999999999999999e-08,0.0,0.0,0.0,8.999999999999999e-08,0.0,0.0,0.0,8.999999999999999e-08
1531930604.918012,4326,1531930604,917606312,base_link,0.0003387782148058821,0.15401216857963368,-0.7422039393225709,0.6522372648145591,1.0,0.0,0.0,0.0,1.0,0.0,0.0,0.0,1.0,-0.14328812062740326,-0.0840853527188301,0.09295042604207994,1.2184696791468346e-07,0.0,0.0,0.0,1.2184696791468346e-07,0.0,0.0,0.0,1.2184696791468346e-07,-0.99047165,0.20593965000000128,10.4931155,8.999999999999999e-08,0.0,0.0,0.0,8.999999999999999e-08,0.0,0.0,0.0,8.999999999999999e-08
1531930605.346109,4327,1531930605,345762024,base_link,-0.021281957585727346,0.14058720714184048,-0.723385503381194,0.6756446765625505,1.0,0.0,0.0,0.0,1.0,0.0,0.0,0.0,1.0,0.060963306576013565,-0.1471341401338577,0.2046654969453812,1.2184696791468346e-07,0.0,0.0,0.0,1.2184696791468346e-07,0.0,0.0,0.0,1.2184696791468346e-07,-0.4118793,-0.24516624999999834,13.6312435,8.999999999999999e-08,0.0,0.0,0.0,8.999999999999999e-08,0.0,0.0,0.0,8.999999999999999e-08
1531930605.7006094,4328,1531930605,700272840,base_link,-0.016871702325167014,0.10356034936472984,-0.7099854791250295,0.6963556699932213,1.0,0.0,0.0,0.0,1.0,0.0,0.0,0.0,1.0,0.2068277895450592,-0.12086062878370285,0.01568870618939401,1.2184696791468346e-07,0.0,0.0,0.0,1.2184696791468346e-07,0.0,0.0,0.0,1.2184696791468346e-07,-0.75511205,0.4314926000000014,11.62088025,8.999999999999999e-08,0.0,0.0,0.0,8.999999999999999e-08,0.0,0.0,0.0,8.999999999999999e-08
1531930606.0041914,4329,1531930606,2214216,base_link,0.004711572287630768,0.05339445197476509,-0.7162006876898479,0.6958328883701043,1.0,0.0,0.0,0.0,1.0,0.0,0.0,0.0,1.0,0.2951420247554779,-0.07232676446437836,-0.03868917375802993,1.2184696791468346e-07,0.0,0.0,0.0,1.2184696791468346e-07,0.0,0.0,0.0,1.2184696791468346e-07,-0.3530394,0.04903325000000146,11.85623985,8.999999999999999e-08,0.0,0.0,0.0,8.999999999999999e-08,0.0,0.0,0.0,8.999999999999999e-08
1531930606.362196,4330,1531930606,361717224,base_link,0.06166050079888441,-0.028387734838092708,-0.7265290229820618,0.6837745958404157,1.0,0.0,0.0,0.0,1.0,0.0,0.0,0.0,1.0,0.8444448709487915,-0.04895487427711488,-0.11171595007181168,1.2184696791468346e-07,0.0,0.0,0.0,1.2184696791468346e-07,0.0,0.0,0.0,1.2184696791468346e-07,-0.2941995,-0.019613299999998734,10.32640245,8.999999999999999e-08,0.0,0.0,0.0,8.999999999999999e-08,0.0,0.0,0.0,8.999999999999999e-08
1531930606.7402585,4331,1531930606,734524072,base_link,0.15619606219624357,-0.1467240216665381,-0.717526905354501,0.6627442883290487,1.0,0.0,0.0,0.0,1.0,0.0,0.0,0.0,1.0,0.6142491698265076,-0.062371499836444855,-0.005876209121197454,1.2184696791468346e-07,0.0,0.0,0.0,1.2184696791468346e-07,0.0,0.0,0.0,1.2184696791468346e-07,-0.22555295,0.15690640000000133,10.7088618,8.999999999999999e-08,0.0,0.0,0.0,8.999999999999999e-08,0.0,0.0,0.0,8.999999999999999e-08
1531930607.2177117,4332,1531930607,217102504,base_link,0.2139751736783533,-0.23245857687013324,-0.7221446103415291,0.6153737050309445,1.0,0.0,0.0,0.0,1.0,0.0,0.0,0.0,1.0,0.41326412558555603,-0.12185368686914448,-0.30637404322624207,1.2184696791468346e-07,0.0,0.0,0.0,1.2184696791468346e-07,0.0,0.0,0.0,1.2184696791468346e-07,0.0,0.33342610000000117,9.65955025,8.999999999999999e-08,0.0,0.0,0.0,8.999999999999999e-08,0.0,0.0,0.0,8.999999999999999e-08
1531930607.5426078,4333,1531930607,540630376,base_link,0.2293298748712869,-0.2691675795499901,-0.7440159755745552,0.5669187337710425,1.0,0.0,0.0,0.0,1.0,0.0,0.0,0.0,1.0,0.15336290001869202,-0.21738250553607943,-0.28267037868499756,1.2184696791468346e-07,0.0,0.0,0.0,1.2184696791468346e-07,0.0,0.0,0.0,1.2184696791468346e-07,0.4118793,0.6766588500000013,10.44408225,8.999999999999999e-08,0.0,0.0,0.0,8.999999999999999e-08,0.0,0.0,0.0,8.999999999999999e-08
1531930607.9901931,4334,1531930607,987579944,base_link,0.22322499557661016,-0.3003781387766747,-0.7871770400069895,0.4901998396375885,1.0,0.0,0.0,0.0,1.0,0.0,0.0,0.0,1.0,-0.16322486102581024,-0.2597678899765015,-0.3705779314041137,1.2184696791468346e-07,0.0,0.0,0.0,1.2184696791468346e-07,0.0,0.0,0.0,1.2184696791468346e-07,0.97085835,0.8531785500000013,10.806928300000001,8.999999999999999e-08,0.0,0.0,0.0,8.999999999999999e-08,0.0,0.0,0.0,8.999999999999999e-08
1531930608.4760237,4335,1531930608,474542120,base_link,0.1973300573210325,-0.3314776773681229,-0.8360279018180836,0.3901804009249634,1.0,0.0,0.0,0.0,1.0,0.0,0.0,0.0,1.0,0.0034095998853445053,-0.366615504026413,-0.2983048260211944,1.2184696791468346e-07,0.0,0.0,0.0,1.2184696791468346e-07,0.0,0.0,0.0,1.2184696791468346e-07,1.3533177,0.27458620000000183,15.2199208,8.999999999999999e-08,0.0,0.0,0.0,8.999999999999999e-08,0.0,0.0,0.0,8.999999999999999e-08
1531930608.8297064,4336,1531930608,829365384,base_link,0.1376485219978945,-0.3288988061012003,-0.8740490732246469,0.3300252677176943,1.0,0.0,0.0,0.0,1.0,0.0,0.0,0.0,1.0,-0.11852458119392395,-0.4358339309692383,-0.18650558590888971,1.2184696791468346e-07,0.0,0.0,0.0,1.2184696791468346e-07,0.0,0.0,0.0,1.2184696791468346e-07,2.157463,0.21574630000000236,19.279873900000002,8.999999999999999e-08,0.0,0.0,0.0,8.999999999999999e-08,0.0,0.0,0.0,8.999999999999999e-08
1531930609.2782195,4337,1531930609,276572456,base_link,0.07557457185298866,-0.3523940401188889,-0.8969657291223889,0.2560457095088016,1.0,0.0,0.0,0.0,1.0,0.0,0.0,0.0,1.0,-0.06572534888982773,-0.33554887771606445,-0.22484260797500608,1.2184696791468346e-07,0.0,0.0,0.0,1.2184696791468346e-07,0.0,0.0,0.0,1.2184696791468346e-07,1.8044236,0.362846050000002,15.70044665,8.999999999999999e-08,0.0,0.0,0.0,8.999999999999999e-08,0.0,0.0,0.0,8.999999999999999e-08
1531930609.6782322,4338,1531930609,675868264,base_link,0.03239829621204265,-0.3612949110365127,-0.9141805004446054,0.1808047296630419,1.0,0.0,0.0,0.0,1.0,0.0,0.0,0.0,1.0,0.19969043135643005,-0.36145114898681646,-0.3166156411170959,1.2184696791468346e-07,0.0,0.0,0.0,1.2184696791468346e-07,0.0,0.0,0.0,1.2184696791468346e-07,1.44157755,0.4118793000000021,17.19105745,8.999999999999999e-08,0.0,0.0,0.0,8.999999999999999e-08,0.0,0.0,0.0,8.999999999999999e-08
1531930610.0806882,4339,1531930610,80246216,base_link,-0.015147157645136026,-0.38670838767351506,-0.914887158583005,0.11492899363580615,1.0,0.0,0.0,0.0,1.0,0.0,0.0,0.0,1.0,0.11289656162261963,-0.3519289791584015,-0.19192498922348017,1.2184696791468346e-07,0.0,0.0,0.0,1.2184696791468346e-07,0.0,0.0,0.0,1.2184696791468346e-07,1.63771055,0.2941995000000019,15.4748937,8.999999999999999e-08,0.0,0.0,0.0,8.999999999999999e-08,0.0,0.0,0.0,8.999999999999999e-08
1531930610.4995956,4340,1531930610,499214856,base_link,-0.048157712112566614,-0.36566593406620523,-0.9285228863536694,0.04259705324342505,1.0,0.0,0.0,0.0,1.0,0.0,0.0,0.0,1.0,-0.22741927206516266,-0.16092523932456973,-0.28779157996177673,1.2184696791468346e-07,0.0,0.0,0.0,1.2184696791468346e-07,0.0,0.0,0.0,1.2184696791468346e-07,1.02969825,1.3631243500000014,12.2583125,8.999999999999999e-08,0.0,0.0,0.0,8.999999999999999e-08,0.0,0.0,0.0,8.999999999999999e-08
1531930610.8446302,4341,1531930610,844276072,base_link,-0.04845985331033148,-0.315670715786068,-0.9472576033928664,-0.0265833524344803,1.0,0.0,0.0,0.0,1.0,0.0,0.0,0.0,1.0,-0.5293964147567749,-0.15770164132118228,-0.30775880813598633,1.2184696791468346e-07,0.0,0.0,0.0,1.2184696791468346e-07,0.0,0.0,0.0,1.2184696791468346e-07,0.24516625,0.6276256000000014,11.4149406,8.999999999999999e-08,0.0,0.0,0.0,8.999999999999999e-08,0.0,0.0,0.0,8.999999999999999e-08
