Time,header.seq,header.stamp.secs,header.stamp.nsecs,header.frame_id,orientation.x,orientation.y,orientation.z,orientation.w,orientation_covariance_0,orientation_covariance_1,orientation_covariance_2,orientation_covariance_3,orientation_covariance_4,orientation_covariance_5,orientation_covariance_6,orientation_covariance_7,orientation_covariance_8,angular_velocity.x,angular_velocity.y,angular_velocity.z,angular_velocity_covariance_0,angular_velocity_covariance_1,angular_velocity_covariance_2,angular_velocity_covariance_3,angular_velocity_covariance_4,angular_velocity_covariance_5,angular_velocity_covariance_6,angular_velocity_covariance_7,angular_velocity_covariance_8,linear_acceleration.x,linear_acceleration.y,linear_acceleration.z,linear_acceleration_covariance_0,linear_acceleration_covariance_1,linear_acceleration_covariance_2,linear_acceleration_covariance_3,linear_acceleration_covariance_4,linear_acceleration_covariance_5,linear_acceleration_covariance_6,linear_acceleration_covariance_7,linear_acceleration_covariance_8
1538765325.3136704,2802,1538765325,313459496,base_link,-0.32951444925326223,-0.0007688425485486461,0.054363708962290425,-0.9425838019838438,1.0,0.0,0.0,0.0,1.0,0.0,0.0,0.0,1.0,0.15624523162841797,-0.17326493561267853,-0.1086955368518829,1.2184696791468346e-07,0.0,0.0,0.0,1.2184696791468346e-07,0.0,0.0,0.0,1.2184696791468346e-07,-1.1964113,0.49033250000000134,10.93441475,8.999999999999999e-08,0.0,0.0,0.0,8.999999999999999e-08,0.0,0.0,0.0,8.999999999999999e-08
1538765325.6312578,2803,1538765325,630913160,base_link,-0.3363809250170082,0.014878216883329626,0.08647739565434259,-0.9376290161827954,1.0,0.0,0.0,0.0,1.0,0.0,0.0,0.0,1.0,-0.020248666405677795,-0.14533716440200808,-0.24481283128261563,1.2184696791468346e-07,0.0,0.0,0.0,1.2184696791468346e-07,0.0,0.0,0.0,1.2184696791468346e-07,-0.89240515,0.6668522000000016,12.03275955,8.999999999999999e-08,0.0,0.0,0.0,8.999999999999999e-08,0.0,0.0,0.0,8.999999999999999e-08
1538765325.9428015,2804,1538765325,942579752,base_link,-0.3472033006271773,0.029908741333419663,0.1311965341320061,-0.9280855589099498,1.0,0.0,0.0,0.0,1.0,0.0,0.0,0.0,1.0,0.18514470756053925,-0.18688094615936282,-0.2441335171461105,1.2184696791468346e-07,0.0,0.0,0.0,1.2184696791468346e-07,0.0,0.0,0.0,1.2184696791468346e-07,-0.7453054,0.4412992500000013,10.93441475,8.999999999999999e-08,0.0,0.0,0.0,8.999999999999999e-08,0.0,0.0,0.0,8.999999999999999e-08
1538765326.4272583,2805,1538765326,426997384,base_link,-0.34370363735592563,0.05912460249945252,0.20172394646739433,-0.9152483490666388,1.0,0.0,0.0,0.0,1.0,0.0,0.0,0.0,1.0,0.004403360653668642,-0.2219512462615967,-0.19730861485004422,1.2184696791468346e-07,0.0,0.0,0.0,1.2184696791468346e-07,0.0,0.0,0.0,1.2184696791468346e-07,-0.28439285000000003,0.5001391500000016,13.32723735,8.999999999999999e-08,0.0,0.0,0.0,8.999999999999999e-08,0.0,0.0,0.0,8.999999999999999e-08
1538765326.81699,2806,1538765326,816704232,base_link,-0.24274246588903098,0.06812714999206856,0.2513693105810397,-0.9344775312366176,1.0,0.0,0.0,0.0,1.0,0.0,0.0,0.0,1.0,-1.2396262884140015,-0.21820782124996185,-0.06861731410026548,1.2184696791468346e-07,0.0,0.0,0.0,1.2184696791468346e-07,0.0,0.0,0.0,1.2184696791468346e-07,-0.10787315,1.098344800000002,15.40624715,8.999999999999999e-08,0.0,0.0,0.0,8.999999999999999e-08,0.0,0.0,0.0,8.999999999999999e-08
1538765327.1550589,2807,1538765327,154827208,base_link,-0.24209443866011335,0.0809226011432634,0.30093604619559755,-0.9188467290545328,1.0,0.0,0.0,0.0,1.0,0.0,0.0,0.0,1.0,0.24071094393730164,-0.11617176234722142,-0.34008345007896423,1.2184696791468346e-07,0.0,0.0,0.0,1.2184696791468346e-07,0.0,0.0,0.0,1.2184696791468346e-07,-0.4314926,0.7551120500000016,12.71922505,8.999999999999999e-08,0.0,0.0,0.0,8.999999999999999e-08,0.0,0.0,0.0,8.999999999999999e-08
1538765327.6174448,2808,1538765327,617160968,base_link,-0.2990787444515344,0.12171741462500545,0.3561981297815835,-0.8768464334958548,1.0,0.0,0.0,0.0,1.0,0.0,0.0,0.0,1.0,0.24053169786930084,-0.17739862203598025,-0.2015595734119415,1.2184696791468346e-07,0.0,0.0,0.0,1.2184696791468346e-07,0.0,0.0,0.0,1.2184696791468346e-07,-0.34323275,0.5099458000000016,12.2386992,8.999999999999999e-08,0.0,0.0,0.0,8.999999999999999e-08,0.0,0.0,0.0,8.999999999999999e-08
1538765328.0118012,2809,1538765328,11539112,base_link,-0.30509458630065533,0.14759867814172845,0.40440302339551404,-0.8494646068491692,1.0,0.0,0.0,0.0,1.0,0.0,0.0,0.0,1.0,-0.03694020211696625,-0.17416746914386752,-0.2555575668811798,1.2184696791468346e-07,0.0,0.0,0.0,1.2184696791468346e-07,0.0,0.0,0.0,1.2184696791468346e-07,-0.1372931,0.7747253500000015,12.05237285,8.999999999999999e-08,0.0,0.0,0.0,8.999999999999999e-08,0.0,0.0,0.0,8.999999999999999e-08
1538765328.4669797,2810,1538765328,466683048,base_link,-0.30011339037485496,0.16348310173855615,0.464772697111914,-0.8168179530243982,1.0,0.0,0.0,0.0,1.0,0.0,0.0,0.0,1.0,0.09085612744092941,-0.19286070764064792,-0.23332415521144864,1.2184696791468346e-07,0.0,0.0,0.0,1.2184696791468346e-07,0.0,0.0,0.0,1.2184696791468346e-07,-0.10787315,0.4216859500000013,10.6892485,8.999999999999999e-08,0.0,0.0,0.0,8.999999999999999e-08,0.0,0.0,0.0,8.999999999999999e-08
1538765328.820473,2811,1538765328,820191048,base_link,-0.2930371539876273,0.18365455023133634,0.503937773691902,-0.7914840193008362,1.0,0.0,0.0,0.0,1.0,0.0,0.0,0.0,1.0,-0.04317502677440643,-0.12726870179176333,-0.2811199426651001,1.2184696791468346e-07,0.0,0.0,0.0,1.2184696791468346e-07,0.0,0.0,0.0,1.2184696791468346e-07,-0.02941995,1.5886773000000014,12.1406327,8.999999999999999e-08,0.0,0.0,0.0,8.999999999999999e-08,0.0,0.0,0.0,8.999999999999999e-08
1538765329.1162002,2812,1538765329,115958600,base_link,-0.2912204010669182,0.18289307050013046,0.5539477406417955,-0.7582101973749149,1.0,0.0,0.0,0.0,1.0,0.0,0.0,0.0,1.0,0.03710326552391052,-0.1798375844955445,-0.4521987736225128,1.2184696791468346e-07,0.0,0.0,0.0,1.2184696791468346e-07,0.0,0.0,0.0,1.2184696791468346e-07,-0.2549729,0.9610517000000014,11.522813750000001,8.999999999999999e-08,0.0,0.0,0.0,8.999999999999999e-08,0.0,0.0,0.0,8.999999999999999e-08
1538765329.42532,2813,1538765329,425059048,base_link,-0.28697051575253163,0.19692695344962038,0.6065856854600377,-0.7147877337285198,1.0,0.0,0.0,0.0,1.0,0.0,0.0,0.0,1.0,0.013331335037946701,-0.25510442256927496,-0.27409672737121576,1.2184696791468346e-07,0.0,0.0,0.0,1.2184696791468346e-07,0.0,0.0,0.0,1.2184696791468346e-07,-0.14709975,0.4216859500000014,11.11093445,8.999999999999999e-08,0.0,0.0,0.0,8.999999999999999e-08,0.0,0.0,0.0,8.999999999999999e-08
1538765329.8216388,2814,1538765329,821376968,base_link,-0.2677350814423377,0.22717672651735668,0.6514751027200036,-0.6725242386932112,1.0,0.0,0.0,0.0,1.0,0.0,0.0,0.0,1.0,0.04649128019809723,-0.25663611292839056,-0.24071912467479703,1.2184696791468346e-07,0.0,0.0,0.0,1.2184696791468346e-07,0.0,0.0,0.0,1.2184696791468346e-07,-0.0196133,0.8629852000000017,13.68027675,8.999999999999999e-08,0.0,0.0,0.0,8.999999999999999e-08,0.0,0.0,0.0,8.999999999999999e-08
1538765330.1432402,2815,1538765330,142873704,base_link,0.2580051094130412,-0.2519518382971257,-0.6893742623882483,0.6282648812818701,1.0,0.0,0.0,0.0,1.0,0.0,0.0,0.0,1.0,0.05645472928881645,-0.259236752986908,-0.26915755867958063,1.2184696791468346e-07,0.0,0.0,0.0,1.2184696791468346e-07,0.0,0.0,0.0,1.2184696791468346e-07,0.0196133,0.5099458000000016,13.0036179,8.999999999999999e-08,0.0,0.0,0.0,8.999999999999999e-08,0.0,0.0,0.0,8.999999999999999e-08
1538765330.444805,2816,1538765330,440107016,base_link,0.24303828002707203,-0.2715867508780631,-0.7211120573768283,0.5892117037998628,1.0,0.0,0.0,0.0,1.0,0.0,0.0,0.0,1.0,0.0808883011341095,-0.24460443854331973,-0.2350257039070129,1.2184696791468346e-07,0.0,0.0,0.0,1.2184696791468346e-07,0.0,0.0,0.0,1.2184696791468346e-07,0.00980665,0.8433719000000015,12.18966595,8.999999999999999e-08,0.0,0.0,0.0,8.999999999999999e-08,0.0,0.0,0.0,8.999999999999999e-08
1538765330.821492,2817,1538765330,821069096,base_link,0.22375740222306,-0.28742743165131657,-0.7643488768949699,0.5320609841682751,1.0,0.0,0.0,0.0,1.0,0.0,0.0,0.0,1.0,0.004082293249666691,-0.2557200491428376,-0.3467077016830444,1.2184696791468346e-07,0.0,0.0,0.0,1.2184696791468346e-07,0.0,0.0,0.0,1.2184696791468346e-07,0.14709975,1.1571847000000015,12.8270982,8.999999999999999e-08,0.0,0.0,0.0,8.999999999999999e-08,0.0,0.0,0.0,8.999999999999999e-08
1538765331.261855,2818,1538765331,261350792,base_link,0.19829853893795202,-0.309740373676808,-0.8128930450174812,0.4516010271598505,1.0,0.0,0.0,0.0,1.0,0.0,0.0,0.0,1.0,0.05883731320500374,-0.306903749704361,-0.24668861925601956,1.2184696791468346e-07,0.0,0.0,0.0,1.2184696791468346e-07,0.0,0.0,0.0,1.2184696791468346e-07,-0.00980665,0.5001391500000018,14.2392558,8.999999999999999e-08,0.0,0.0,0.0,8.999999999999999e-08,0.0,0.0,0.0,8.999999999999999e-08
1538765331.6440682,2819,1538765331,643556552,base_link,0.15882586422506584,-0.32538409114650796,-0.8415352562760611,0.4008964336662351,1.0,0.0,0.0,0.0,1.0,0.0,0.0,0.0,1.0,-0.06711503118276596,-0.29666095972061163,-0.23704855144023892,1.2184696791468346e-07,0.0,0.0,0.0,1.2184696791468346e-07,0.0,0.0,0.0,1.2184696791468346e-07,0.26477955,0.8433719000000018,14.572681900000001,8.999999999999999e-08,0.0,0.0,0.0,8.999999999999999e-08,0.0,0.0,0.0,8.999999999999999e-08
1538765332.0866668,2820,1538765332,86176904,base_link,0.12600342357713162,-0.34490970553665823,-0.8712772097872706,0.3256323939333527,1.0,0.0,0.0,0.0,1.0,0.0,0.0,0.0,1.0,0.19700337946414948,-0.2840797603130341,-0.2648060023784637,1.2184696791468346e-07,0.0,0.0,0.0,1.2184696791468346e-07,0.0,0.0,0.0,1.2184696791468346e-07,0.30400615,0.578592350000002,16.6124651,8.999999999999999e-08,0.0,0.0,0.0,8.999999999999999e-08,0.0,0.0,0.0,8.999999999999999e-08
1538765332.5281959,2821,1538765332,526706312,base_link,0.09552949921075515,-0.3604373633589067,-0.8905522940804027,0.26052952497472004,1.0,0.0,0.0,0.0,1.0,0.0,0.0,0.0,1.0,0.17164433002471924,-0.23578271269798282,-0.3271102309226989,1.2184696791468346e-07,0.0,0.0,0.0,1.2184696791468346e-07,0.0,0.0,0.0,1.2184696791468346e-07,0.1176798,1.3925443000000017,12.93497135,8.999999999999999e-08,0.0,0.0,0.0,8.999999999999999e-08,0.0,0.0,0.0,8.999999999999999e-08
1538765332.844733,2822,1538765332,843570632,base_link,0.08637004184919463,-0.36306944971505045,-0.9063885635849438,0.1979408051842793,1.0,0.0,0.0,0.0,1.0,0.0,0.0,0.0,1.0,0.1272086501121521,-0.18929404020309454,-0.37201830744743347,1.2184696791468346e-07,0.0,0.0,0.0,1.2184696791468346e-07,0.0,0.0,0.0,1.2184696791468346e-07,-0.1176798,0.5883990000000014,11.85623985,8.999999999999999e-08,0.0,0.0,0.0,8.999999999999999e-08,0.0,0.0,0.0,8.999999999999999e-08
1538765333.2902093,2823,1538765333,289869896,base_link,0.07341931040535037,-0.3803509051496955,-0.9145338051809421,0.11649340321527561,1.0,0.0,0.0,0.0,1.0,0.0,0.0,0.0,1.0,-0.3809295892715454,-0.19366925954818728,-0.3129631578922272,1.2184696791468346e-07,0.0,0.0,0.0,1.2184696791468346e-07,0.0,0.0,0.0,1.2184696791468346e-07,-0.53936575,1.147378050000001,8.58081875,8.999999999999999e-08,0.0,0.0,0.0,8.999999999999999e-08,0.0,0.0,0.0,8.999999999999999e-08
1538765333.592352,2824,1538765333,591980968,base_link,0.06161872293791737,-0.3547887445961871,-0.9314398542250524,0.05242020271397801,1.0,0.0,0.0,0.0,1.0,0.0,0.0,0.0,1.0,0.05340294539928436,-0.21490024030208593,-0.40913495421409607,1.2184696791468346e-07,0.0,0.0,0.0,1.2184696791468346e-07,0.0,0.0,0.0,1.2184696791468346e-07,-0.44129925000000003,1.0493115500000016,13.20955755,8.999999999999999e-08,0.0,0.0,0.0,8.999999999999999e-08,0.0,0.0,0.0,8.999999999999999e-08
1538765333.9112368,2825,1538765333,910949672,base_link,0.04522180180077279,-0.3568549092568326,-0.9329793245320197,-0.01261516456354834,1.0,0.0,0.0,0.0,1.0,0.0,0.0,0.0,1.0,-0.028789877891540527,-0.24468770623207095,-0.2228179574012756,1.2184696791468346e-07,0.0,0.0,0.0,1.2184696791468346e-07,0.0,0.0,0.0,1.2184696791468346e-07,-0.44129925000000003,0.6766588500000016,12.0425662,8.999999999999999e-08,0.0,0.0,0.0,8.999999999999999e-08,0.0,0.0,0.0,8.999999999999999e-08
1538765334.2813523,2826,1538765334,280984360,base_link,0.02318812489126113,-0.3395138815129361,-0.9372762278413451,-0.07553745989604212,1.0,0.0,0.0,0.0,1.0,0.0,0.0,0.0,1.0,-0.028100039809942245,-0.23152185976505285,-0.36124360561370844,1.2184696791468346e-07,0.0,0.0,0.0,1.2184696791468346e-07,0.0,0.0,0.0,1.2184696791468346e-07,-0.53936575,0.8727918500000016,12.601545250000001,8.999999999999999e-08,0.0,0.0,0.0,8.999999999999999e-08,0.0,0.0,0.0,8.999999999999999e-08
1538765334.6048286,2827,1538765334,604482952,base_link,-0.005268140579399944,-0.3570868472819958,-0.9240766388197108,-0.13617487206054535,1.0,0.0,0.0,0.0,1.0,0.0,0.0,0.0,1.0,0.2569315731525421,-0.31906700134277344,-0.15027707815170285,1.2184696791468346e-07,0.0,0.0,0.0,1.2184696791468346e-07,0.0,0.0,0.0,1.2184696791468346e-07,-0.34323275,0.13729310000000206,16.73995155,8.999999999999999e-08,0.0,0.0,0.0,8.999999999999999e-08,0.0,0.0,0.0,8.999999999999999e-08
1538765335.001859,2828,1538765335,1481160,base_link,-0.04821829952655892,-0.33345302311556796,-0.924164120692605,-0.18001320782186986,1.0,0.0,0.0,0.0,1.0,0.0,0.0,0.0,1.0,-0.3889979124069214,-0.24973936378955844,-0.18614076077938077,1.2184696791468346e-07,0.0,0.0,0.0,1.2184696791468346e-07,0.0,0.0,0.0,1.2184696791468346e-07,-0.4118793,1.1277647500000019,15.2787607,8.999999999999999e-08,0.0,0.0,0.0,8.999999999999999e-08,0.0,0.0,0.0,8.999999999999999e-08
1538765335.455761,2829,1538765335,453970024,base_link,-0.03941968755928806,-0.27412313406344174,-0.9233532533774567,-0.2659348888003057,1.0,0.0,0.0,0.0,1.0,0.0,0.0,0.0,1.0,-0.21837590634822845,-0.116596631705761,-0.35673561692237854,1.2184696791468346e-07,0.0,0.0,0.0,1.2184696791468346e-07,0.0,0.0,0.0,1.2184696791468346e-07,-0.7060788,0.6766588500000011,9.56148375,8.999999999999999e-08,0.0,0.0,0.0,8.999999999999999e-08,0.0,0.0,0.0,8.999999999999999e-08
1538765335.8120553,2830,1538765335,811626120,base_link,-0.035455487051959264,-0.22367545705111944,-0.9211973290561429,-0.3163979761166456,1.0,0.0,0.0,0.0,1.0,0.0,0.0,0.0,1.0,-0.44276317954063416,-0.15143583714962008,-0.12543144822120664,1.2184696791468346e-07,0.0,0.0,0.0,1.2184696791468346e-07,0.0,0.0,0.0,1.2184696791468346e-07,-0.9022118,0.6178189500000013,11.01286795,8.999999999999999e-08,0.0,0.0,0.0,8.999999999999999e-08,0.0,0.0,0.0,8.999999999999999e-08
1538765336.228091,2831,1538765336,227659816,base_link,-0.016740104539576032,-0.14385393157850168,-0.9247984615289562,-0.3518147535608586,1.0,0.0,0.0,0.0,1.0,0.0,0.0,0.0,1.0,-0.28428953886032104,-0.07882098108530046,-0.15828117728233337,1.2184696791468346e-07,0.0,0.0,0.0,1.2184696791468346e-07,0.0,0.0,0.0,1.2184696791468346e-07,-0.87279185,0.5099458000000012,10.091042850000001,8.999999999999999e-08,0.0,0.0,0.0,8.999999999999999e-08,0.0,0.0,0.0,8.999999999999999e-08
1538765336.483566,2832,1538765336,483302856,base_link,-0.007506033071369873,-0.11285216278765975,-0.9221809316955311,-0.3698518325476315,1.0,0.0,0.0,0.0,1.0,0.0,0.0,0.0,1.0,-0.23163722455501556,-0.004050829447805891,-0.07984594255685806,1.2184696791468346e-07,0.0,0.0,0.0,1.2184696791468346e-07,0.0,0.0,0.0,1.2184696791468346e-07,-0.8629852,0.3334261000000014,11.50320045,8.999999999999999e-08,0.0,0.0,0.0,8.999999999999999e-08,0.0,0.0,0.0,8.999999999999999e-08
1538765336.8710334,2833,1538765336,870428104,base_link,0.01701334577819891,-0.06716108207132027,-0.9193473479697729,-0.38729883668994664,1.0,0.0,0.0,0.0,1.0,0.0,0.0,0.0,1.0,-0.10295391082763672,0.035439494997262934,-0.1563509851694107,1.2184696791468346e-07,0.0,0.0,0.0,1.2184696791468346e-07,0.0,0.0,0.0,1.2184696791468346e-07,-0.8041453000000001,0.47071920000000106,8.5710121,8.999999999999999e-08,0.0,0.0,0.0,8.999999999999999e-08,0.0,0.0,0.0,8.999999999999999e-08
1538765337.1068187,2834,1538765337,106391336,base_link,0.019209737294379834,-0.07060060847298102,-0.9149169226923957,-0.39695536858367725,1.0,0.0,0.0,0.0,1.0,0.0,0.0,0.0,1.0,0.023992057889699936,0.006203587166965003,-0.04158870875835419,1.2184696791468346e-07,0.0,0.0,0.0,1.2184696791468346e-07,0.0,0.0,0.0,1.2184696791468346e-07,-0.69627215,0.32361945000000114,8.825985,8.999999999999999e-08,0.0,0.0,0.0,8.999999999999999e-08,0.0,0.0,0.0,8.999999999999999e-08
1538765337.6046114,2835,1538765337,602454408,base_link,0.007270425623508963,-0.10744789035585682,-0.9078376947532272,-0.4052564765114499,1.0,0.0,0.0,0.0,1.0,0.0,0.0,0.0,1.0,0.1812627762556076,0.042789027094840996,-0.04030637443065644,1.2184696791468346e-07,0.0,0.0,0.0,1.2184696791468346e-07,0.0,0.0,0.0,1.2184696791468346e-07,-0.6080123,0.2843928500000013,10.7480884,8.999999999999999e-08,0.0,0.0,0.0,8.999999999999999e-08,0.0,0.0,0.0,8.999999999999999e-08
1538765337.9686372,2836,1538765337,965749672,base_link,0.007334097702423269,-0.12347054596288591,-0.8970987822603375,-0.42416389539603383,1.0,0.0,0.0,0.0,1.0,0.0,0.0,0.0,1.0,0.21696613729000092,0.028274981305003135,-0.25193148851394653,1.2184696791468346e-07,0.0,0.0,0.0,1.2184696791468346e-07,0.0,0.0,0.0,1.2184696791468346e-07,-0.71588545,0.7256921000000013,9.79684335,8.999999999999999e-08,0.0,0.0,0.0,8.999999999999999e-08,0.0,0.0,0.0,8.999999999999999e-08
1538765338.25701,2837,1538765338,256429256,base_link,-0.014702537173386725,-0.16780394681395747,-0.8751736400085623,-0.45353805867698344,1.0,0.0,0.0,0.0,1.0,0.0,0.0,0.0,1.0,0.45721670985221863,-0.07156381756067277,-0.1259283572435379,1.2184696791468346e-07,0.0,0.0,0.0,1.2184696791468346e-07,0.0,0.0,0.0,1.2184696791468346e-07,-0.7060788,0.07845320000000124,10.091042850000001,8.999999999999999e-08,0.0,0.0,0.0,8.999999999999999e-08,0.0,0.0,0.0,8.999999999999999e-08
1538765338.7207124,2838,1538765338,720325224,base_link,-0.06778231435692655,-0.23519272997942803,-0.8506886850693878,-0.4652082315696472,1.0,0.0,0.0,0.0,1.0,0.0,0.0,0.0,1.0,0.2362721860408783,-0.08409756422042848,-0.07261260598897933,1.2184696791468346e-07,0.0,0.0,0.0,1.2184696791468346e-07,0.0,0.0,0.0,1.2184696791468346e-07,-0.588399,0.6080123000000015,11.69933345,8.999999999999999e-08,0.0,0.0,0.0,8.999999999999999e-08,0.0,0.0,0.0,8.999999999999999e-08
1538765339.0577865,2839,1538765339,57462504,base_link,-0.09283929015935435,-0.26280622406420245,-0.8318825815846027,-0.479880323884987,1.0,0.0,0.0,0.0,1.0,0.0,0.0,0.0,1.0,0.3540467619895935,-0.08564566075801851,-0.14987854659557343,1.2184696791468346e-07,0.0,0.0,0.0,1.2184696791468346e-07,0.0,0.0,0.0,1.2184696791468346e-07,-0.48052585000000003,0.6178189500000013,10.2773692,8.999999999999999e-08,0.0,0.0,0.0,8.999999999999999e-08,0.0,0.0,0.0,8.999999999999999e-08
1538765339.499069,2840,1538765339,498807144,base_link,-0.10783741232421527,-0.27413817161214094,-0.8005605611734223,-0.521844941780664,1.0,0.0,0.0,0.0,1.0,0.0,0.0,0.0,1.0,0.10707788169384003,-0.06592499464750293,-0.25795799493789673,1.2184696791468346e-07,0.0,0.0,0.0,1.2184696791468346e-07,0.0,0.0,0.0,1.2184696791468346e-07,-0.34323275,0.8531785500000013,10.01258965,8.999999999999999e-08,0.0,0.0,0.0,8.999999999999999e-08,0.0,0.0,0.0,8.999999999999999e-08
1538765339.8164666,2841,1538765339,815921000,base_link,-0.12256853362619818,-0.2855065040642755,-0.7660254303889766,-0.5627326458444563,1.0,0.0,0.0,0.0,1.0,0.0,0.0,0.0,1.0,0.13373777270317078,-0.18361407518386844,-0.28261038661003113,1.2184696791468346e-07,0.0,0.0,0.0,1.2184696791468346e-07,0.0,0.0,0.0,1.2184696791468346e-07,-0.5099458,0.7354987500000013,10.22833595,8.999999999999999e-08,0.0,0.0,0.0,8.999999999999999e-08,0.0,0.0,0.0,8.999999999999999e-08
1538765340.2240734,2842,1538765340,223723816,base_link,-0.158368060031529,-0.3028243137077283,-0.704580961456697,-0.6219185327211674,1.0,0.0,0.0,0.0,1.0,0.0,0.0,0.0,1.0,0.19599543511867523,-0.25022715330123907,-0.3677057027816772,1.2184696791468346e-07,0.0,0.0,0.0,1.2184696791468346e-07,0.0,0.0,0.0,1.2184696791468346e-07,-0.24516625,0.5393657500000014,11.964113,8.999999999999999e-08,0.0,0.0,0.0,8.999999999999999e-08,0.0,0.0,0.0,8.999999999999999e-08
1538765340.667451,2843,1538765340,666847656,base_link,-0.20590806952874216,-0.2837532738167693,-0.6441007140313079,-0.6798677935345752,1.0,0.0,0.0,0.0,1.0,0.0,0.0,0.0,1.0,0.061345454305410385,-0.355263501405716,-0.23220540583133692,1.2184696791468346e-07,0.0,0.0,0.0,1.2184696791468346e-07,0.0,0.0,0.0,1.2184696791468346e-07,0.0,0.7453054000000017,14.0038962,8.999999999999999e-08,0.0,0.0,0.0,8.999999999999999e-08,0.0,0.0,0.0,8.999999999999999e-08
1538765341.026476,2844,1538765341,26017000,base_link,-0.22883975389904154,-0.24529393030029017,-0.6001183842783767,-0.7261688368722339,1.0,0.0,0.0,0.0,1.0,0.0,0.0,0.0,1.0,-0.15629705786705017,-0.32365539669990545,-0.27510666847229,1.2184696791468346e-07,0.0,0.0,0.0,1.2184696791468346e-07,0.0,0.0,0.0,1.2184696791468346e-07,0.0980665,0.9806650000000017,13.3958839,8.999999999999999e-08,0.0,0.0,0.0,8.999999999999999e-08,0.0,0.0,0.0,8.999999999999999e-08
1538765341.4604988,2845,1538765341,458887528,base_link,-0.2584347546347255,-0.21224066553999918,-0.5343101486480151,-0.7763234136233194,1.0,0.0,0.0,0.0,1.0,0.0,0.0,0.0,1.0,0.08473456650972366,-0.28644362092018133,-0.30249366164207453,1.2184696791468346e-07,0.0,0.0,0.0,1.2184696791468346e-07,0.0,0.0,0.0,1.2184696791468346e-07,0.1372931,0.6276256000000017,13.4743371,8.999999999999999e-08,0.0,0.0,0.0,8.999999999999999e-08,0.0,0.0,0.0,8.999999999999999e-08
1538765341.7594426,2846,1538765341,758920968,base_link,-0.2763536536509225,-0.1884870545437808,-0.48853380861684575,-0.8058759248305628,1.0,0.0,0.0,0.0,1.0,0.0,0.0,0.0,1.0,-0.04535117745399475,-0.29562911391258245,-0.27086961269378657,1.2184696791468346e-07,0.0,0.0,0.0,1.2184696791468346e-07,0.0,0.0,0.0,1.2184696791468346e-07,0.16671305,1.0002783000000015,12.5917386,8.999999999999999e-08,0.0,0.0,0.0,8.999999999999999e-08,0.0,0.0,0.0,8.999999999999999e-08
1538765342.1151986,2847,1538765342,113621512,base_link,-0.29237787893029604,-0.16066554461508423,-0.4286537435979789,-0.8396176074768785,1.0,0.0,0.0,0.0,1.0,0.0,0.0,0.0,1.0,-0.05264323204755783,-0.3029968142509461,-0.275320678949356,1.2184696791468346e-07,0.0,0.0,0.0,1.2184696791468346e-07,0.0,0.0,0.0,1.2184696791468346e-07,0.22555295,0.6864655000000017,13.6704701,8.999999999999999e-08,0.0,0.0,0.0,8.999999999999999e-08,0.0,0.0,0.0,8.999999999999999e-08
1538765342.4739265,2848,1538765342,473531720,base_link,-0.31640583137989003,-0.13626347347482418,-0.3727581875883346,-0.8616095108871749,1.0,0.0,0.0,0.0,1.0,0.0,0.0,0.0,1.0,0.0024066397454589605,-0.28593158721923834,-0.29339018464088434,1.2184696791468346e-07,0.0,0.0,0.0,1.2184696791468346e-07,0.0,0.0,0.0,1.2184696791468346e-07,0.32361945000000003,1.1767980000000016,13.0820711,8.999999999999999e-08,0.0,0.0,0.0,8.999999999999999e-08,0.0,0.0,0.0,8.999999999999999e-08
1538765342.9766521,2849,1538765342,974845448,base_link,-0.3243010376440801,-0.10193442164255723,-0.2688387323543446,-0.9012013907298851,1.0,0.0,0.0,0.0,1.0,0.0,0.0,0.0,1.0,-0.06101079657673836,-0.23366767168045047,-0.33128455281257624,1.2184696791468346e-07,0.0,0.0,0.0,1.2184696791468346e-07,0.0,0.0,0.0,1.2184696791468346e-07,0.06864655,0.5883990000000014,11.89546645,8.999999999999999e-08,0.0,0.0,0.0,8.999999999999999e-08,0.0,0.0,0.0,8.999999999999999e-08
1538765343.3671587,2850,1538765343,366808776,base_link,-0.2985215734423057,-0.06432969808474732,-0.2109919464244162,-0.9285628458418373,1.0,0.0,0.0,0.0,1.0,0.0,0.0,0.0,1.0,-0.16644831001758575,-0.18490011990070346,-0.23678232729434964,1.2184696791468346e-07,0.0,0.0,0.0,1.2184696791468346e-07,0.0,0.0,0.0,1.2184696791468346e-07,0.20593965,0.7158854500000014,11.73856005,8.999999999999999e-08,0.0,0.0,0.0,8.999999999999999e-08,0.0,0.0,0.0,8.999999999999999e-08
1538765343.9756455,2851,1538765343,971833032,base_link,-0.3465786019181805,-0.052949028159038895,-0.12370413170962408,-0.9283194282720904,1.0,0.0,0.0,0.0,1.0,0.0,0.0,0.0,1.0,0.14303843677043915,-0.11066779494285586,-0.27447932958602905,1.2184696791468346e-07,0.0,0.0,0.0,1.2184696791468346e-07,0.0,0.0,0.0,1.2184696791468346e-07,0.18632635,0.921825100000001,8.0806796,8.999999999999999e-08,0.0,0.0,0.0,8.999999999999999e-08,0.0,0.0,0.0,8.999999999999999e-08
1538765344.3578804,2852,1538765344,357381960,base_link,-0.3654396591392451,-0.04925636830580005,-0.040490947445819825,-0.9286485604815502,1.0,0.0,0.0,0.0,1.0,0.0,0.0,0.0,1.0,0.02582903578877449,-0.2151165902614594,-0.4119349420070648,1.2184696791468346e-07,0.0,0.0,0.0,1.2184696791468346e-07,0.0,0.0,0.0,1.2184696791468346e-07,0.1765197,0.9708583500000011,9.4732239,8.999999999999999e-08,0.0,0.0,0.0,8.999999999999999e-08,0.0,0.0,0.0,8.999999999999999e-08
1538765344.6622097,2853,1538765344,661900456,base_link,-0.3674005874087894,-0.03603934537096734,0.02620742754536481,-0.9289946957320925,1.0,0.0,0.0,0.0,1.0,0.0,0.0,0.0,1.0,0.014945589005947113,-0.2835300564765931,-0.36694121360778803,1.2184696791468346e-07,0.0,0.0,0.0,1.2184696791468346e-07,0.0,0.0,0.0,1.2184696791468346e-07,0.30400615,0.5982056500000015,11.9248864,8.999999999999999e-08,0.0,0.0,0.0,8.999999999999999e-08,0.0,0.0,0.0,8.999999999999999e-08
1538765345.0566642,2854,1538765345,56339560,base_link,-0.3828755703354094,0.01113556246489391,0.10347335841728217,-0.9179191473037119,1.0,0.0,0.0,0.0,1.0,0.0,0.0,0.0,1.0,0.05550478398799896,-0.37230122089385986,-0.1950001567602157,1.2184696791468346e-07,0.0,0.0,0.0,1.2184696791468346e-07,0.0,0.0,0.0,1.2184696791468346e-07,0.30400615,0.6864655000000014,10.99325465,8.999999999999999e-08,0.0,0.0,0.0,8.999999999999999e-08,0.0,0.0,0.0,8.999999999999999e-08
1538765345.4250977,2855,1538765345,421812520,base_link,-0.3772542113203323,0.05331215202859617,0.1701982656858927,-0.9087736928656487,1.0,0.0,0.0,0.0,1.0,0.0,0.0,0.0,1.0,-0.005975812673568726,-0.36669972538948065,-0.3561019599437713,1.2184696791468346e-07,0.0,0.0,0.0,1.2184696791468346e-07,0.0,0.0,0.0,1.2184696791468346e-07,0.95124505,1.147378050000002,14.22944915,8.999999999999999e-08,0.0,0.0,0.0,8.999999999999999e-08,0.0,0.0,0.0,8.999999999999999e-08
1538765345.7226613,2856,1538765345,720601416,base_link,-0.37085684181976486,0.08761099754317929,0.2390400405293523,-0.8931121850073956,1.0,0.0,0.0,0.0,1.0,0.0,0.0,0.0,1.0,-0.207770437002182,-0.4234485030174256,-0.26837819814682,1.2184696791468346e-07,0.0,0.0,0.0,1.2184696791468346e-07,0.0,0.0,0.0,1.2184696791468346e-07,0.79433865,0.8237586000000018,14.8668814,8.999999999999999e-08,0.0,0.0,0.0,8.999999999999999e-08,0.0,0.0,0.0,8.999999999999999e-08
1538765346.1031914,2857,1538765346,102774504,base_link,-0.31730355383369474,0.1268157608193307,0.319404552944973,-0.8838647798675676,1.0,0.0,0.0,0.0,1.0,0.0,0.0,0.0,1.0,-0.32691431045532227,-0.3569085001945496,-0.2558408677577972,1.2184696791468346e-07,0.0,0.0,0.0,1.2184696791468346e-07,0.0,0.0,0.0,1.2184696791468346e-07,1.04931155,1.1571847000000017,14.9845612,8.999999999999999e-08,0.0,0.0,0.0,8.999999999999999e-08,0.0,0.0,0.0,8.999999999999999e-08
1538765346.5200088,2858,1538765346,519600616,base_link,-0.24329679368034374,0.13823459177194233,0.3970571868072639,-0.8740957946513701,1.0,0.0,0.0,0.0,1.0,0.0,0.0,0.0,1.0,-0.3335118889808655,-0.23257344961166385,-0.29279124736785883,1.2184696791468346e-07,0.0,0.0,0.0,1.2184696791468346e-07,0.0,0.0,0.0,1.2184696791468346e-07,0.7060788,0.9316317500000016,13.56259695,8.999999999999999e-08,0.0,0.0,0.0,8.999999999999999e-08,0.0,0.0,0.0,8.999999999999999e-08
1538765346.8944912,2859,1538765346,894251112,base_link,-0.17540870136674264,0.13430921798985587,0.45916924071342025,-0.8604396723945539,1.0,0.0,0.0,0.0,1.0,0.0,0.0,0.0,1.0,-0.32537180185317993,-0.16601671278476718,-0.22624036669731137,1.2184696791468346e-07,0.0,0.0,0.0,1.2184696791468346e-07,0.0,0.0,0.0,1.2184696791468346e-07,0.4707192,0.6766588500000016,12.1210194,8.999999999999999e-08,0.0,0.0,0.0,8.999999999999999e-08,0.0,0.0,0.0,8.999999999999999e-08
1538765347.2404735,2860,1538765347,239309384,base_link,-0.12580751686077973,0.12646519622373806,0.4956653195946084,-0.8499970081103762,1.0,0.0,0.0,0.0,1.0,0.0,0.0,0.0,1.0,-0.4047001600265503,-0.13054962456226352,-0.17759643495082852,1.2184696791468346e-07,0.0,0.0,0.0,1.2184696791468346e-07,0.0,0.0,0.0,1.2184696791468346e-07,0.1569064,0.9904716500000014,11.2384209,8.999999999999999e-08,0.0,0.0,0.0,8.999999999999999e-08,0.0,0.0,0.0,8.999999999999999e-08
1538765347.6192923,2861,1538765347,618302568,base_link,-0.0700676693318781,0.10750533133759022,0.5312044276595627,-0.8374693913709741,1.0,0.0,0.0,0.0,1.0,0.0,0.0,0.0,1.0,-0.1352635622024536,-0.061266090720891966,-0.1291186362504959,1.2184696791468346e-07,0.0,0.0,0.0,1.2184696791468346e-07,0.0,0.0,0.0,1.2184696791468346e-07,0.42168595,0.33342610000000156,12.36618565,8.999999999999999e-08,0.0,0.0,0.0,8.999999999999999e-08,0.0,0.0,0.0,8.999999999999999e-08
1538765348.1559637,2862,1538765348,155583080,base_link,-0.08083066144911014,0.11725192127484708,0.5582471768370143,-0.8173606796760898,1.0,0.0,0.0,0.0,1.0,0.0,0.0,0.0,1.0,0.092958465218544,0.001827117870561758,-0.16782419383525848,1.2184696791468346e-07,0.0,0.0,0.0,1.2184696791468346e-07,0.0,0.0,0.0,1.2184696791468346e-07,0.2549729,0.5687857000000013,9.99297635,8.999999999999999e-08,0.0,0.0,0.0,8.999999999999999e-08,0.0,0.0,0.0,8.999999999999999e-08
1538765348.468993,2863,1538765348,467675368,base_link,-0.09483267857942934,0.11941839724437928,0.5745420352430239,-0.8041439294130363,1.0,0.0,0.0,0.0,1.0,0.0,0.0,0.0,1.0,-0.09305674582719803,0.0032948602456599313,-0.12983176112174988,1.2184696791468346e-07,0.0,0.0,0.0,1.2184696791468346e-07,0.0,0.0,0.0,1.2184696791468346e-07,0.3334261,0.6374322500000013,9.67916355,8.999999999999999e-08,0.0,0.0,0.0,8.999999999999999e-08,0.0,0.0,0.0,8.999999999999999e-08
1538765348.807339,2864,1538765348,806999176,base_link,-0.10104006553328902,0.11497108979908004,0.5919216600075399,-0.7913288204541516,1.0,0.0,0.0,0.0,1.0,0.0,0.0,0.0,1.0,0.18855661153793335,0.03544913604855535,-0.15039923787117004,1.2184696791468346e-07,0.0,0.0,0.0,1.2184696791468346e-07,0.0,0.0,0.0,1.2184696791468346e-07,0.30400615,0.5295591000000013,10.0223963,8.999999999999999e-08,0.0,0.0,0.0,8.999999999999999e-08,0.0,0.0,0.0,8.999999999999999e-08
1538765349.2240527,2865,1538765349,223687784,base_link,-0.15122051031214476,0.1418844152478095,0.602016276194679,-0.7710885637638607,1.0,0.0,0.0,0.0,1.0,0.0,0.0,0.0,1.0,0.2673584222793579,0.023602232336997972,-0.1074444130063057,1.2184696791468346e-07,0.0,0.0,0.0,1.2184696791468346e-07,0.0,0.0,0.0,1.2184696791468346e-07,0.36284605000000003,0.6864655000000012,9.5320638,8.999999999999999e-08,0.0,0.0,0.0,8.999999999999999e-08,0.0,0.0,0.0,8.999999999999999e-08
1538765349.4957967,2866,1538765349,494501352,base_link,-0.17525161192105923,0.1520559679045396,0.6136697014256184,-0.7547021615815581,1.0,0.0,0.0,0.0,1.0,0.0,0.0,0.0,1.0,0.06961750239133835,0.02619372680783269,-0.21538510918617249,1.2184696791468346e-07,0.0,0.0,0.0,1.2184696791468346e-07,0.0,0.0,0.0,1.2184696791468346e-07,0.3530394,0.9610517000000012,9.1201845,8.999999999999999e-08,0.0,0.0,0.0,8.999999999999999e-08,0.0,0.0,0.0,8.999999999999999e-08
1538765349.927484,2867,1538765349,927028008,base_link,-0.18361966823372172,0.13851260719720418,0.6584243347471646,-0.7166418006911993,1.0,0.0,0.0,0.0,1.0,0.0,0.0,0.0,1.0,0.028155742213129997,-0.030528923496604004,-0.3121713697910309,1.2184696791468346e-07,0.0,0.0,0.0,1.2184696791468346e-07,0.0,0.0,0.0,1.2184696791468346e-07,0.18632635,0.6766588500000011,8.9632781,8.999999999999999e-08,0.0,0.0,0.0,8.999999999999999e-08,0.0,0.0,0.0,8.999999999999999e-08
1538765350.265303,2868,1538765350,264990696,base_link,0.1919483293372185,-0.1486189054622071,-0.6966191727319355,0.6751222022612943,1.0,0.0,0.0,0.0,1.0,0.0,0.0,0.0,1.0,0.15665611624717712,-0.12151362001895909,-0.2918313145637512,1.2184696791468346e-07,0.0,0.0,0.0,1.2184696791468346e-07,0.0,0.0,0.0,1.2184696791468346e-07,0.28439285000000003,0.5982056500000011,9.81645665,8.999999999999999e-08,0.0,0.0,0.0,8.999999999999999e-08,0.0,0.0,0.0,8.999999999999999e-08
1538765350.5611272,2869,1538765350,560859464,base_link,0.20035330758612396,-0.1721368538255448,-0.7239855146562393,0.6372381268115423,1.0,0.0,0.0,0.0,1.0,0.0,0.0,0.0,1.0,0.17524272203445435,-0.1716611832380295,-0.2893843352794647,1.2184696791468346e-07,0.0,0.0,0.0,1.2184696791468346e-07,0.0,0.0,0.0,1.2184696791468346e-07,0.2941995,0.5883990000000014,11.64049355,8.999999999999999e-08,0.0,0.0,0.0,8.999999999999999e-08,0.0,0.0,0.0,8.999999999999999e-08
1538765350.9230473,2870,1538765350,922700392,base_link,0.19633821154523554,-0.20083366079736684,-0.7526486307026862,0.5955142198800281,1.0,0.0,0.0,0.0,1.0,0.0,0.0,0.0,1.0,0.12730498611927032,-0.20331437885761264,-0.2127673029899597,1.2184696791468346e-07,0.0,0.0,0.0,1.2184696791468346e-07,0.0,0.0,0.0,1.2184696791468346e-07,0.4511059,0.7354987500000015,12.0229529,8.999999999999999e-08,0.0,0.0,0.0,8.999999999999999e-08,0.0,0.0,0.0,8.999999999999999e-08
1538765351.3643365,2871,1538765351,363919944,base_link,0.16851464730327576,-0.20794094599191476,-0.79016816641339,0.5513598148316046,1.0,0.0,0.0,0.0,1.0,0.0,0.0,0.0,1.0,-0.09938178956508636,-0.19482272863388064,-0.28241902589797974,1.2184696791468346e-07,0.0,0.0,0.0,1.2184696791468346e-07,0.0,0.0,0.0,1.2184696791468346e-07,0.53936575,1.0493115500000016,13.20955755,8.999999999999999e-08,0.0,0.0,0.0,8.999999999999999e-08,0.0,0.0,0.0,8.999999999999999e-08
1538765351.6647203,2872,1538765351,664307656,base_link,0.15838425731078434,-0.2204754054957365,-0.8200747274582115,0.5037682641770342,1.0,0.0,0.0,0.0,1.0,0.0,0.0,0.0,1.0,0.004027092829346657,-0.19096006453037265,-0.3093278110027313,1.2184696791468346e-07,0.0,0.0,0.0,1.2184696791468346e-07,0.0,0.0,0.0,1.2184696791468346e-07,0.42168595,0.7551120500000014,11.22861425,8.999999999999999e-08,0.0,0.0,0.0,8.999999999999999e-08,0.0,0.0,0.0,8.999999999999999e-08
1538765352.0019417,2873,1538765352,1573576,base_link,0.1435105931713898,-0.23450633463066745,-0.8452957453899252,0.4581338139576423,1.0,0.0,0.0,0.0,1.0,0.0,0.0,0.0,1.0,-0.05483292415738106,-0.2229951471090317,-0.23810127377510068,1.2184696791468346e-07,0.0,0.0,0.0,1.2184696791468346e-07,0.0,0.0,0.0,1.2184696791468346e-07,0.50013915,0.6962721500000015,12.552512,8.999999999999999e-08,0.0,0.0,0.0,8.999999999999999e-08,0.0,0.0,0.0,8.999999999999999e-08
1538765352.4344604,2874,1538765352,433685064,base_link,0.11015810858377023,-0.2383532532007337,-0.8758874839071722,0.4048135784983458,1.0,0.0,0.0,0.0,1.0,0.0,0.0,0.0,1.0,0.011069115251302719,-0.1698163449764252,-0.15907755494117734,1.2184696791468346e-07,0.0,0.0,0.0,1.2184696791468346e-07,0.0,0.0,0.0,1.2184696791468346e-07,0.16671305,0.26477955000000125,10.14988275,8.999999999999999e-08,0.0,0.0,0.0,8.999999999999999e-08,0.0,0.0,0.0,8.999999999999999e-08
1538765352.7676222,2875,1538765352,767144904,base_link,0.1003413872186333,-0.2820279304520735,-0.8794189405384797,0.3701542644332742,1.0,0.0,0.0,0.0,1.0,0.0,0.0,0.0,1.0,0.4433876574039459,-0.22164110839366913,-0.09388534724712369,1.2184696791468346e-07,0.0,0.0,0.0,1.2184696791468346e-07,0.0,0.0,0.0,1.2184696791468346e-07,0.4707192,0.9218251000000017,13.26839745,8.999999999999999e-08,0.0,0.0,0.0,8.999999999999999e-08,0.0,0.0,0.0,8.999999999999999e-08
1538765353.1662908,2876,1538765353,165885576,base_link,0.09996138867753275,-0.29448896497461946,-0.8984377692027176,0.3099895887798187,1.0,0.0,0.0,0.0,1.0,0.0,0.0,0.0,1.0,-0.013562547042965889,-0.16485767066478732,-0.28861457109451294,1.2184696791468346e-07,0.0,0.0,0.0,1.2184696791468346e-07,0.0,0.0,0.0,1.2184696791468346e-07,0.22555295,0.22555295000000147,11.9444997,8.999999999999999e-08,0.0,0.0,0.0,8.999999999999999e-08,0.0,0.0,0.0,8.999999999999999e-08
1538765353.648467,2877,1538765353,647636776,base_link,0.07270364865565619,-0.28663883949571306,-0.9207424721231635,0.2545302638061557,1.0,0.0,0.0,0.0,1.0,0.0,0.0,0.0,1.0,-0.25543954968452454,-0.16158802807331088,-0.16704350709915158,1.2184696791468346e-07,0.0,0.0,0.0,1.2184696791468346e-07,0.0,0.0,0.0,1.2184696791468346e-07,0.3334261,0.7256921000000014,11.7091401,8.999999999999999e-08,0.0,0.0,0.0,8.999999999999999e-08,0.0,0.0,0.0,8.999999999999999e-08
1538765353.8948462,2878,1538765353,894250920,base_link,0.06555127806461741,-0.2641181882724261,-0.935738682509358,0.22436071541924946,1.0,0.0,0.0,0.0,1.0,0.0,0.0,0.0,1.0,-0.14050836861133575,-0.05759874358773236,-0.32360339164733887,1.2184696791468346e-07,0.0,0.0,0.0,1.2184696791468346e-07,0.0,0.0,0.0,1.2184696791468346e-07,-0.00980665,0.8531785500000013,10.6107953,8.999999999999999e-08,0.0,0.0,0.0,8.999999999999999e-08,0.0,0.0,0.0,8.999999999999999e-08
1538765354.2221398,2879,1538765354,220101672,base_link,0.07716844304071631,-0.26392757253058513,-0.9474634166290277,0.16340239290302333,1.0,0.0,0.0,0.0,1.0,0.0,0.0,0.0,1.0,-0.026999428868293762,-0.055368170142173816,-0.4172040522098541,1.2184696791468346e-07,0.0,0.0,0.0,1.2184696791468346e-07,0.0,0.0,0.0,1.2184696791468346e-07,-0.0980665,0.9610517000000008,6.79600845,8.999999999999999e-08,0.0,0.0,0.0,8.999999999999999e-08,0.0,0.0,0.0,8.999999999999999e-08
1538765354.6206987,2880,1538765354,620222088,base_link,0.07342834001887351,-0.2695051874625564,-0.9554083506319686,0.09576072449363553,1.0,0.0,0.0,0.0,1.0,0.0,0.0,0.0,1.0,0.13213226199150085,-0.11698583513498309,-0.18665038049221036,1.2184696791468346e-07,0.0,0.0,0.0,1.2184696791468346e-07,0.0,0.0,0.0,1.2184696791468346e-07,-0.0196133,0.3432327500000012,9.69877685,8.999999999999999e-08,0.0,0.0,0.0,8.999999999999999e-08,0.0,0.0,0.0,8.999999999999999e-08
1538765354.962105,2881,1538765354,961619144,base_link,0.05861214490127706,-0.26977079870837073,-0.9591750800977438,0.06141252603342734,1.0,0.0,0.0,0.0,1.0,0.0,0.0,0.0,1.0,-0.17181402444839478,-0.19398102164268496,-0.17850966751575467,1.2184696791468346e-07,0.0,0.0,0.0,1.2184696791468346e-07,0.0,0.0,0.0,1.2184696791468346e-07,0.0392266,0.8825985000000012,9.4928372,8.999999999999999e-08,0.0,0.0,0.0,8.999999999999999e-08,0.0,0.0,0.0,8.999999999999999e-08
1538765355.4889462,2882,1538765355,488555080,base_link,0.04205264380240083,-0.2762556219883539,-0.9601111682288712,-0.010047443020405675,1.0,0.0,0.0,0.0,1.0,0.0,0.0,0.0,1.0,0.06153365224599838,-0.13474763929843908,-0.3477786183357239,1.2184696791468346e-07,0.0,0.0,0.0,1.2184696791468346e-07,0.0,0.0,0.0,1.2184696791468346e-07,0.04903325,1.0689248500000013,10.34601575,8.999999999999999e-08,0.0,0.0,0.0,8.999999999999999e-08,0.0,0.0,0.0,8.999999999999999e-08
1538765355.9642315,2883,1538765355,961115208,base_link,0.0224752717016003,-0.29550558654763953,-0.947715402486029,-0.11835043883238823,1.0,0.0,0.0,0.0,1.0,0.0,0.0,0.0,1.0,0.25034594535827637,-0.2627300620079041,-0.3184002339839935,1.2184696791468346e-07,0.0,0.0,0.0,1.2184696791468346e-07,0.0,0.0,0.0,1.2184696791468346e-07,0.02941995,0.18632635000000147,11.83662655,8.999999999999999e-08,0.0,0.0,0.0,8.999999999999999e-08,0.0,0.0,0.0,8.999999999999999e-08
1538765356.310173,2884,1538765356,309912392,base_link,-0.018799354452668608,-0.3191594159750046,-0.9322046852280392,-0.16964161136215694,1.0,0.0,0.0,0.0,1.0,0.0,0.0,0.0,1.0,-0.014868006110191345,-0.30601173639297485,-0.1843294948339462,1.2184696791468346e-07,0.0,0.0,0.0,1.2184696791468346e-07,0.0,0.0,0.0,1.2184696791468346e-07,0.3726527,1.225831250000002,14.36674225,8.999999999999999e-08,0.0,0.0,0.0,8.999999999999999e-08,0.0,0.0,0.0,8.999999999999999e-08
1538765356.702049,2885,1538765356,701639720,base_link,-0.05088769611702106,-0.31706745758394234,-0.9161047037629516,-0.24006424446083413,1.0,0.0,0.0,0.0,1.0,0.0,0.0,0.0,1.0,0.1979248970746994,-0.2657591104507447,-0.34360662102699274,1.2184696791468346e-07,0.0,0.0,0.0,1.2184696791468346e-07,0.0,0.0,0.0,1.2184696791468346e-07,0.1372931,0.6962721500000016,13.337044,8.999999999999999e-08,0.0,0.0,0.0,8.999999999999999e-08,0.0,0.0,0.0,8.999999999999999e-08
1538765357.0545022,2886,1538765357,54121480,base_link,-0.10211382874132031,-0.3473868960866376,-0.8805278848748194,-0.30588519801545927,1.0,0.0,0.0,0.0,1.0,0.0,0.0,0.0,1.0,0.22849425673484802,-0.3234785795211792,-0.21192833781242368,1.2184696791468346e-07,0.0,0.0,0.0,1.2184696791468346e-07,0.0,0.0,0.0,1.2184696791468346e-07,0.2549729,0.6472389000000017,13.7881499,8.999999999999999e-08,0.0,0.0,0.0,8.999999999999999e-08,0.0,0.0,0.0,8.999999999999999e-08
1538765357.3830369,2887,1538765357,382516264,base_link,-0.12348844549328228,-0.33185070175620107,-0.8606705094665765,-0.36588521384187256,1.0,0.0,0.0,0.0,1.0,0.0,0.0,0.0,1.0,-0.15490469336509705,-0.28001642227172857,-0.3909424543380737,1.2184696791468346e-07,0.0,0.0,0.0,1.2184696791468346e-07,0.0,0.0,0.0,1.2184696791468346e-07,0.24516625,1.0198916000000013,11.71894675,8.999999999999999e-08,0.0,0.0,0.0,8.999999999999999e-08,0.0,0.0,0.0,8.999999999999999e-08
1538765357.8006718,2888,1538765357,799541192,base_link,-0.13640788108411958,-0.30205878225012744,-0.826840622233424,-0.45440947114728486,1.0,0.0,0.0,0.0,1.0,0.0,0.0,0.0,1.0,-0.03702133521437645,-0.2698068320751191,-0.3820598125457763,1.2184696791468346e-07,0.0,0.0,0.0,1.2184696791468346e-07,0.0,0.0,0.0,1.2184696791468346e-07,0.24516625,0.9022118000000016,12.3367657,8.999999999999999e-08,0.0,0.0,0.0,8.999999999999999e-08,0.0,0.0,0.0,8.999999999999999e-08
1538765358.1683197,2889,1538765358,167369864,base_link,-0.15773774217320055,-0.2770287352068696,-0.7918988879798384,-0.5208359010092123,1.0,0.0,0.0,0.0,1.0,0.0,0.0,0.0,1.0,0.04092119634151459,-0.2669857740402222,-0.2720182836055755,1.2184696791468346e-07,0.0,0.0,0.0,1.2184696791468346e-07,0.0,0.0,0.0,1.2184696791468346e-07,0.3138128,0.5197524500000015,11.8856598,8.999999999999999e-08,0.0,0.0,0.0,8.999999999999999e-08,0.0,0.0,0.0,8.999999999999999e-08
1538765358.4841547,2890,1538765358,481913032,base_link,-0.18461847821758962,-0.2774391832308764,-0.7596334532964445,-0.5584805580695928,1.0,0.0,0.0,0.0,1.0,0.0,0.0,0.0,1.0,0.11907090246677399,-0.23222845792770389,-0.2447574287652969,1.2184696791468346e-07,0.0,0.0,0.0,1.2184696791468346e-07,0.0,0.0,0.0,1.2184696791468346e-07,0.1765197,0.6178189500000014,11.58165365,8.999999999999999e-08,0.0,0.0,0.0,8.999999999999999e-08,0.0,0.0,0.0,8.999999999999999e-08
1538765358.7592692,2891,1538765358,758187112,base_link,-0.21296224665263389,-0.27763738947124816,-0.7245611560950644,-0.5937808455536746,1.0,0.0,0.0,0.0,1.0,0.0,0.0,0.0,1.0,0.11171402782201767,-0.27016511559486395,-0.26254832744598383,1.2184696791468346e-07,0.0,0.0,0.0,1.2184696791468346e-07,0.0,0.0,0.0,1.2184696791468346e-07,0.28439285000000003,1.0002783000000015,12.3759923,8.999999999999999e-08,0.0,0.0,0.0,8.999999999999999e-08,0.0,0.0,0.0,8.999999999999999e-08
1538765359.116427,2892,1538765359,115853224,base_link,-0.22584758984681771,-0.26893012947304556,-0.6799985303016736,-0.6436392237966533,1.0,0.0,0.0,0.0,1.0,0.0,0.0,0.0,1.0,0.04568212479352951,-0.1901573389768601,-0.3846055865287781,1.2184696791468346e-07,0.0,0.0,0.0,1.2184696791468346e-07,0.0,0.0,0.0,1.2184696791468346e-07,0.1569064,0.9904716500000014,11.22861425,8.999999999999999e-08,0.0,0.0,0.0,8.999999999999999e-08,0.0,0.0,0.0,8.999999999999999e-08
1538765359.4832194,2893,1538765359,482526696,base_link,-0.26389714765422034,-0.26908004236268374,-0.619007485831305,-0.6890456869808196,1.0,0.0,0.0,0.0,1.0,0.0,0.0,0.0,1.0,0.10749247670173645,-0.355737715959549,-0.24447539448738093,1.2184696791468346e-07,0.0,0.0,0.0,1.2184696791468346e-07,0.0,0.0,0.0,1.2184696791468346e-07,0.36284605000000003,0.9120184500000017,13.42530385,8.999999999999999e-08,0.0,0.0,0.0,8.999999999999999e-08,0.0,0.0,0.0,8.999999999999999e-08
1538765359.819582,2894,1538765359,819209704,base_link,-0.27296134595436855,-0.2377780918807642,-0.5753416634930884,-0.7334409675531685,1.0,0.0,0.0,0.0,1.0,0.0,0.0,0.0,1.0,-0.01580100692808628,-0.27415639162063604,-0.30712404847145075,1.2184696791468346e-07,0.0,0.0,0.0,1.2184696791468346e-07,0.0,0.0,0.0,1.2184696791468346e-07,0.48052585000000003,1.0787315000000015,12.48386545,8.999999999999999e-08,0.0,0.0,0.0,8.999999999999999e-08,0.0,0.0,0.0,8.999999999999999e-08
1538765360.1849039,2895,1538765360,184412264,base_link,-0.2826950363826496,-0.2167533996761658,-0.5166936634976327,-0.7785429585031463,1.0,0.0,0.0,0.0,1.0,0.0,0.0,0.0,1.0,-0.055673450231552124,-0.24342687427997595,-0.35335913300514216,1.2184696791468346e-07,0.0,0.0,0.0,1.2184696791468346e-07,0.0,0.0,0.0,1.2184696791468346e-07,0.4118793,1.1277647500000014,11.11093445,8.999999999999999e-08,0.0,0.0,0.0,8.999999999999999e-08,0.0,0.0,0.0,8.999999999999999e-08
1538765360.5431664,2896,1538765360,541023624,base_link,-0.29192481628088035,-0.19693817932842647,-0.44731310668503876,-0.8221351712157545,1.0,0.0,0.0,0.0,1.0,0.0,0.0,0.0,1.0,0.12249330431222916,-0.2986308336257935,-0.37680095434188837,1.2184696791468346e-07,0.0,0.0,0.0,1.2184696791468346e-07,0.0,0.0,0.0,1.2184696791468346e-07,0.3530394,0.8041453000000017,13.52337035,8.999999999999999e-08,0.0,0.0,0.0,8.999999999999999e-08,0.0,0.0,0.0,8.999999999999999e-08
1538765360.979637,2897,1538765360,977101832,base_link,-0.31873724641791334,-0.16274444291145565,-0.37139331565080136,-0.8567308907336484,1.0,0.0,0.0,0.0,1.0,0.0,0.0,0.0,1.0,0.0704147145152092,-0.34767663478851324,-0.2818109989166259,1.2184696791468346e-07,0.0,0.0,0.0,1.2184696791468346e-07,0.0,0.0,0.0,1.2184696791468346e-07,0.392266,1.1571847000000017,13.3566573,8.999999999999999e-08,0.0,0.0,0.0,8.999999999999999e-08,0.0,0.0,0.0,8.999999999999999e-08
1538765361.3625975,2898,1538765361,362133928,base_link,-0.3200312279483807,-0.1390495723709427,-0.2798126039965413,-0.8943993158572876,1.0,0.0,0.0,0.0,1.0,0.0,0.0,0.0,1.0,-0.15728192031383514,-0.2431300282478333,-0.5241031646728516,1.2184696791468346e-07,0.0,0.0,0.0,1.2184696791468346e-07,0.0,0.0,0.0,1.2184696791468346e-07,0.3138128,1.3827376500000015,11.01286795,8.999999999999999e-08,0.0,0.0,0.0,8.999999999999999e-08,0.0,0.0,0.0,8.999999999999999e-08
1538765361.6701045,2899,1538765361,669727240,base_link,-0.32493801231050096,-0.11746888975616604,-0.20855881797432851,-0.9149423848201073,1.0,0.0,0.0,0.0,1.0,0.0,0.0,0.0,1.0,0.0896904394030571,-0.3426619470119477,-0.2755542695522308,1.2184696791468346e-07,0.0,0.0,0.0,1.2184696791468346e-07,0.0,0.0,0.0,1.2184696791468346e-07,0.61781895,-0.1274864499999982,14.7688149,8.999999999999999e-08,0.0,0.0,0.0,8.999999999999999e-08,0.0,0.0,0.0,8.999999999999999e-08
1538765362.06299,2900,1538765362,62624296,base_link,-0.3431670379069414,-0.05360904786195291,-0.16321476212405567,-0.9234302331558668,1.0,0.0,0.0,0.0,1.0,0.0,0.0,0.0,1.0,-0.31248676776885986,-0.34543004631996155,-0.1364238709211349,1.2184696791468346e-07,0.0,0.0,0.0,1.2184696791468346e-07,0.0,0.0,0.0,1.2184696791468346e-07,0.53936575,1.1473780500000017,13.64105015,8.999999999999999e-08,0.0,0.0,0.0,8.999999999999999e-08,0.0,0.0,0.0,8.999999999999999e-08
1538765362.4061375,2901,1538765362,405633896,base_link,-0.3042867652049613,-0.028612931914272964,-0.11025298389517879,-0.9457458137314589,1.0,0.0,0.0,0.0,1.0,0.0,0.0,0.0,1.0,-0.2589420676231384,-0.1513280868530274,-0.36317241191864014,1.2184696791468346e-07,0.0,0.0,0.0,1.2184696791468346e-07,0.0,0.0,0.0,1.2184696791468346e-07,0.4511059,0.9904716500000016,12.356379,8.999999999999999e-08,0.0,0.0,0.0,8.999999999999999e-08,0.0,0.0,0.0,8.999999999999999e-08
1538765362.733768,2902,1538765362,733445096,base_link,-0.29905708787535146,-0.01950246109556791,-0.04181274965109938,-0.9531191983006873,1.0,0.0,0.0,0.0,1.0,0.0,0.0,0.0,1.0,0.05362405627965927,-0.1933458894491196,-0.33888041973114014,1.2184696791468346e-07,0.0,0.0,0.0,1.2184696791468346e-07,0.0,0.0,0.0,1.2184696791468346e-07,0.20593965,0.6080123000000014,11.3953273,8.999999999999999e-08,0.0,0.0,0.0,8.999999999999999e-08,0.0,0.0,0.0,8.999999999999999e-08
1538765363.1241748,2903,1538765363,123581576,base_link,-0.3183045923990018,-0.002293559382942763,0.031118303462187302,-0.9474748425328755,1.0,0.0,0.0,0.0,1.0,0.0,0.0,0.0,1.0,0.09014835208654404,-0.1878926903009415,-0.3021073639392853,1.2184696791468346e-07,0.0,0.0,0.0,1.2184696791468346e-07,0.0,0.0,0.0,1.2184696791468346e-07,0.0196133,0.7256921000000014,11.01286795,8.999999999999999e-08,0.0,0.0,0.0,8.999999999999999e-08,0.0,0.0,0.0,8.999999999999999e-08
1538765363.555687,2904,1538765363,555388328,base_link,-0.32838700125166276,0.02361747633553484,0.10221071302725043,-0.9386997189532668,1.0,0.0,0.0,0.0,1.0,0.0,0.0,0.0,1.0,0.007145308889448643,-0.2211052179336548,-0.2861090302467346,1.2184696791468346e-07,0.0,0.0,0.0,1.2184696791468346e-07,0.0,0.0,0.0,1.2184696791468346e-07,0.0980665,0.9708583500000014,11.16977435,8.999999999999999e-08,0.0,0.0,0.0,8.999999999999999e-08,0.0,0.0,0.0,8.999999999999999e-08
1538765363.9576495,2905,1538765363,956197672,base_link,-0.31806241992166195,0.04797045697957501,0.17603554059332915,-0.9303475806056365,1.0,0.0,0.0,0.0,1.0,0.0,0.0,0.0,1.0,-0.10950812697410583,-0.23824830353260043,-0.2830561995506286,1.2184696791468346e-07,0.0,0.0,0.0,1.2184696791468346e-07,0.0,0.0,0.0,1.2184696791468346e-07,0.2353596,0.7060788000000016,12.64077185,8.999999999999999e-08,0.0,0.0,0.0,8.999999999999999e-08,0.0,0.0,0.0,8.999999999999999e-08
1538765364.2987509,2906,1538765364,298463272,base_link,-0.31787673697947827,0.07365611405699797,0.23150053436280615,-0.9164805832853404,1.0,0.0,0.0,0.0,1.0,0.0,0.0,0.0,1.0,0.030608369037508965,-0.2678580284118653,-0.24444858729839322,1.2184696791468346e-07,0.0,0.0,0.0,1.2184696791468346e-07,0.0,0.0,0.0,1.2184696791468346e-07,0.2353596,0.9022118000000016,12.5721253,8.999999999999999e-08,0.0,0.0,0.0,8.999999999999999e-08,0.0,0.0,0.0,8.999999999999999e-08
1538765364.6579127,2907,1538765364,657609384,base_link,-0.30880973487110297,0.09808262094925667,0.29067693215301227,-0.9002906576382299,1.0,0.0,0.0,0.0,1.0,0.0,0.0,0.0,1.0,-0.10034944117069244,-0.2278009355068207,-0.29478108882904047,1.2184696791468346e-07,0.0,0.0,0.0,1.2184696791468346e-07,0.0,0.0,0.0,1.2184696791468346e-07,0.26477955,0.8041453000000015,12.62115855,8.999999999999999e-08,0.0,0.0,0.0,8.999999999999999e-08,0.0,0.0,0.0,8.999999999999999e-08
1538765365.1828926,2908,1538765365,182413544,base_link,-0.3100523941394459,0.13319428390117827,0.38261519283062223,-0.8600769790196898,1.0,0.0,0.0,0.0,1.0,0.0,0.0,0.0,1.0,-0.005738472566008568,-0.24683938920497897,-0.3132906556129455,1.2184696791468346e-07,0.0,0.0,0.0,1.2184696791468346e-07,0.0,0.0,0.0,1.2184696791468346e-07,0.63743225,0.9022118000000017,13.97447625,8.999999999999999e-08,0.0,0.0,0.0,8.999999999999999e-08,0.0,0.0,0.0,8.999999999999999e-08
1538765365.5750923,2909,1538765365,574477608,base_link,-0.2968380379571648,0.1506624539992228,0.4454606788518828,-0.8311153877612257,1.0,0.0,0.0,0.0,1.0,0.0,0.0,0.0,1.0,-0.017187124118208885,-0.2300555855035782,-0.3150889575481414,1.2184696791468346e-07,0.0,0.0,0.0,1.2184696791468346e-07,0.0,0.0,0.0,1.2184696791468346e-07,0.4511059,0.7747253500000015,12.2779258,8.999999999999999e-08,0.0,0.0,0.0,8.999999999999999e-08,0.0,0.0,0.0,8.999999999999999e-08
1538765365.891224,2910,1538765365,890503400,base_link,-0.26921488172245683,0.15329278381493416,0.5017148081167688,-0.8076551994544364,1.0,0.0,0.0,0.0,1.0,0.0,0.0,0.0,1.0,-0.12241647392511368,-0.20549634099006656,-0.33076807856559753,1.2184696791468346e-07,0.0,0.0,0.0,1.2184696791468346e-07,0.0,0.0,0.0,1.2184696791468346e-07,0.3530394,0.9120184500000014,11.48358715,8.999999999999999e-08,0.0,0.0,0.0,8.999999999999999e-08,0.0,0.0,0.0,8.999999999999999e-08
1538765366.2189658,2911,1538765366,218486312,base_link,-0.24616852068422088,0.1592328760248943,0.5518199617196666,-0.7807308630153471,1.0,0.0,0.0,0.0,1.0,0.0,0.0,0.0,1.0,-0.14185543358325958,-0.2070417106151581,-0.2839162051677704,1.2184696791468346e-07,0.0,0.0,0.0,1.2184696791468346e-07,0.0,0.0,0.0,1.2184696791468346e-07,0.5687857000000001,0.8237586000000015,11.81701325,8.999999999999999e-08,0.0,0.0,0.0,8.999999999999999e-08,0.0,0.0,0.0,8.999999999999999e-08
1538765366.659032,2912,1538765366,658481992,base_link,-0.22373873989883872,0.1653761569005407,0.6179723950546143,-0.7353242971286554,1.0,0.0,0.0,0.0,1.0,0.0,0.0,0.0,1.0,-0.054950229823589325,-0.20973360538482672,-0.3768424391746521,1.2184696791468346e-07,0.0,0.0,0.0,1.2184696791468346e-07,0.0,0.0,0.0,1.2184696791468346e-07,0.46091255,1.0493115500000016,12.83690485,8.999999999999999e-08,0.0,0.0,0.0,8.999999999999999e-08,0.0,0.0,0.0,8.999999999999999e-08
1538765367.0811229,2913,1538765367,80660200,base_link,-0.19100008634920596,0.17980026812601874,0.6753934796128099,-0.6892274503332763,1.0,0.0,0.0,0.0,1.0,0.0,0.0,0.0,1.0,-0.1641276776790619,-0.2592715322971344,-0.1922265142202377,1.2184696791468346e-07,0.0,0.0,0.0,1.2184696791468346e-07,0.0,0.0,0.0,1.2184696791468346e-07,0.3334261,0.6374322500000017,14.15099595,8.999999999999999e-08,0.0,0.0,0.0,8.999999999999999e-08,0.0,0.0,0.0,8.999999999999999e-08
1538765367.5373814,2914,1538765367,537111368,base_link,0.1322052185921319,-0.18060642919645833,-0.7096151664356426,0.6680938657662012,1.0,0.0,0.0,0.0,1.0,0.0,0.0,0.0,1.0,-0.22384780645370483,-0.11834951490163804,-0.165207102894783,1.2184696791468346e-07,0.0,0.0,0.0,1.2184696791468346e-07,0.0,0.0,0.0,1.2184696791468346e-07,0.0196133,1.0787315000000015,11.76798,8.999999999999999e-08,0.0,0.0,0.0,8.999999999999999e-08,0.0,0.0,0.0,8.999999999999999e-08
1538765367.8335288,2915,1538765367,833030280,base_link,0.1269937791043357,-0.17537108112211122,-0.735962271649753,0.6414648070494562,1.0,0.0,0.0,0.0,1.0,0.0,0.0,0.0,1.0,-0.08609312772750854,-0.016889778897166294,-0.3532576858997345,1.2184696791468346e-07,0.0,0.0,0.0,1.2184696791468346e-07,0.0,0.0,0.0,1.2184696791468346e-07,-0.0196133,0.5491724000000012,9.71839015,8.999999999999999e-08,0.0,0.0,0.0,8.999999999999999e-08,0.0,0.0,0.0,8.999999999999999e-08
1538765368.2641695,2916,1538765368,263539336,base_link,0.12816324669801774,-0.17654943384915173,-0.7657855954455716,0.6049602477943807,1.0,0.0,0.0,0.0,1.0,0.0,0.0,0.0,1.0,-0.023451417684555054,-0.08303819596767427,-0.057343926280736916,1.2184696791468346e-07,0.0,0.0,0.0,1.2184696791468346e-07,0.0,0.0,0.0,1.2184696791468346e-07,-0.1765197,0.0686465500000014,11.46397385,8.999999999999999e-08,0.0,0.0,0.0,8.999999999999999e-08,0.0,0.0,0.0,8.999999999999999e-08
1538765368.5815485,2917,1538765368,581154056,base_link,0.11589823894044177,-0.17647091263999565,-0.7702962953923931,0.6017218896693608,1.0,0.0,0.0,0.0,1.0,0.0,0.0,0.0,1.0,-0.15403679013252258,-0.03125756606459618,-0.06413207948207855,1.2184696791468346e-07,0.0,0.0,0.0,1.2184696791468346e-07,0.0,0.0,0.0,1.2184696791468346e-07,-0.196133,0.7256921000000013,10.2185293,8.999999999999999e-08,0.0,0.0,0.0,8.999999999999999e-08,0.0,0.0,0.0,8.999999999999999e-08
1538765368.9458861,2918,1538765368,945349192,base_link,0.10991785562351336,-0.16073946077245876,-0.7883946638305843,0.5835364125820838,1.0,0.0,0.0,0.0,1.0,0.0,0.0,0.0,1.0,-0.0639134868979454,0.02093462273478506,-0.17393426597118378,1.2184696791468346e-07,0.0,0.0,0.0,1.2184696791468346e-07,0.0,0.0,0.0,1.2184696791468346e-07,-0.2353596,0.6570455500000013,9.7085835,8.999999999999999e-08,0.0,0.0,0.0,8.999999999999999e-08,0.0,0.0,0.0,8.999999999999999e-08
1538765369.2851076,2919,1538765369,284765160,base_link,0.10668087770368075,-0.13671163269040298,-0.8059540295281932,0.5660099134350605,1.0,0.0,0.0,0.0,1.0,0.0,0.0,0.0,1.0,-0.0814734548330307,0.05550495907664297,-0.16072048246860504,1.2184696791468346e-07,0.0,0.0,0.0,1.2184696791468346e-07,0.0,0.0,0.0,1.2184696791468346e-07,-0.38245935,0.500139150000001,8.20816605,8.999999999999999e-08,0.0,0.0,0.0,8.999999999999999e-08,0.0,0.0,0.0,8.999999999999999e-08
1538765369.7423742,2920,1538765369,741970696,base_link,0.12887219981222695,-0.14673610191122208,-0.8199452380285549,0.5380987633750454,1.0,0.0,0.0,0.0,1.0,0.0,0.0,0.0,1.0,-0.20406651496887207,0.006539331749081601,-0.08759279549121857,1.2184696791468346e-07,0.0,0.0,0.0,1.2184696791468346e-07,0.0,0.0,0.0,1.2184696791468346e-07,-0.392266,0.7354987500000013,10.30678915,8.999999999999999e-08,0.0,0.0,0.0,8.999999999999999e-08,0.0,0.0,0.0,8.999999999999999e-08
1538765370.1399975,2921,1538765370,139560520,base_link,0.1408315098988261,-0.11962194713378504,-0.8445187202712141,0.5026382463511998,1.0,0.0,0.0,0.0,1.0,0.0,0.0,0.0,1.0,-0.031137051060795784,0.04607379436492915,-0.37153443694114685,1.2184696791468346e-07,0.0,0.0,0.0,1.2184696791468346e-07,0.0,0.0,0.0,1.2184696791468346e-07,-0.4903325,0.735498750000001,8.4925589,8.999999999999999e-08,0.0,0.0,0.0,8.999999999999999e-08,0.0,0.0,0.0,8.999999999999999e-08
1538765370.5731926,2922,1538765370,572776200,base_link,0.17073795848606538,-0.1612883918666527,-0.869153962742129,0.4352079884730214,1.0,0.0,0.0,0.0,1.0,0.0,0.0,0.0,1.0,0.4386453628540039,-0.08985880762338641,-0.19723491370677948,1.2184696791468346e-07,0.0,0.0,0.0,1.2184696791468346e-07,0.0,0.0,0.0,1.2184696791468346e-07,-0.59820565,0.11767980000000115,9.3359308,8.999999999999999e-08,0.0,0.0,0.0,8.999999999999999e-08,0.0,0.0,0.0,8.999999999999999e-08
1538765370.969517,2923,1538765370,969143656,base_link,0.18115571432921873,-0.23172901080381153,-0.8721791292082592,0.3908808505047035,1.0,0.0,0.0,0.0,1.0,0.0,0.0,0.0,1.0,0.24998442828655243,-0.18627898395061496,-0.1321386247873306,1.2184696791468346e-07,0.0,0.0,0.0,1.2184696791468346e-07,0.0,0.0,0.0,1.2184696791468346e-07,-0.1372931,0.6668522000000016,11.9837263,8.999999999999999e-08,0.0,0.0,0.0,8.999999999999999e-08,0.0,0.0,0.0,8.999999999999999e-08
1538765371.3143234,2924,1538765371,311636520,base_link,0.16593538234308386,-0.2549501044072747,-0.8830042071430295,0.3574485463910634,1.0,0.0,0.0,0.0,1.0,0.0,0.0,0.0,1.0,-0.05955491214990616,-0.15032501518726352,-0.20926401019096372,1.2184696791468346e-07,0.0,0.0,0.0,1.2184696791468346e-07,0.0,0.0,0.0,1.2184696791468346e-07,-0.2353596,1.2356379000000013,9.9243298,8.999999999999999e-08,0.0,0.0,0.0,8.999999999999999e-08,0.0,0.0,0.0,8.999999999999999e-08
1538765371.845859,2925,1538765371,845348744,base_link,0.13791373529322104,-0.25415369922459535,-0.9177812787812597,0.2721455917455959,1.0,0.0,0.0,0.0,1.0,0.0,0.0,0.0,1.0,-0.07898464798927307,-0.16334816813468936,-0.3033372759819031,1.2184696791468346e-07,0.0,0.0,0.0,1.2184696791468346e-07,0.0,0.0,0.0,1.2184696791468346e-07,-0.1569064,0.7453054000000015,11.8268199,8.999999999999999e-08,0.0,0.0,0.0,8.999999999999999e-08,0.0,0.0,0.0,8.999999999999999e-08
1538765372.228681,2926,1538765372,228423240,base_link,0.1257325218820323,-0.2787794776744714,-0.9315532200674509,0.19667723292414024,1.0,0.0,0.0,0.0,1.0,0.0,0.0,0.0,1.0,0.11377348750829697,-0.22495105862617495,-0.28544551134109497,1.2184696791468346e-07,0.0,0.0,0.0,1.2184696791468346e-07,0.0,0.0,0.0,1.2184696791468346e-07,-0.28439285000000003,0.6276256000000014,11.434553900000001,8.999999999999999e-08,0.0,0.0,0.0,8.999999999999999e-08,0.0,0.0,0.0,8.999999999999999e-08
1538765372.5774677,2927,1538765372,576925736,base_link,0.09859918985299612,-0.314063984547083,-0.9330674453597615,0.1450074335354951,1.0,0.0,0.0,0.0,1.0,0.0,0.0,0.0,1.0,0.09121887385845184,-0.2807757258415222,-0.1845307797193527,1.2184696791468346e-07,0.0,0.0,0.0,1.2184696791468346e-07,0.0,0.0,0.0,1.2184696791468346e-07,-0.12748645,0.7256921000000017,13.1997509,8.999999999999999e-08,0.0,0.0,0.0,8.999999999999999e-08,0.0,0.0,0.0,8.999999999999999e-08
1538765373.0273886,2928,1538765373,27095368,base_link,0.06396081552073657,-0.3311033145250673,-0.9391699757869232,0.06511041213835937,1.0,0.0,0.0,0.0,1.0,0.0,0.0,0.0,1.0,-0.027469778433442116,-0.2422398775815964,-0.33046495914459223,1.2184696791468346e-07,0.0,0.0,0.0,1.2184696791468346e-07,0.0,0.0,0.0,1.2184696791468346e-07,-0.0392266,1.0983448000000018,13.83718315,8.999999999999999e-08,0.0,0.0,0.0,8.999999999999999e-08,0.0,0.0,0.0,8.999999999999999e-08
1538765373.3593783,2929,1538765373,359070696,base_link,0.040544125319736,-0.3360097559964441,-0.9409796394867747,-0.0033069394623028805,1.0,0.0,0.0,0.0,1.0,0.0,0.0,0.0,1.0,0.047454431653022766,-0.297090232372284,-0.3191915154457092,1.2184696791468346e-07,0.0,0.0,0.0,1.2184696791468346e-07,0.0,0.0,0.0,1.2184696791468346e-07,-0.18632635,0.7551120500000016,13.03303785,8.999999999999999e-08,0.0,0.0,0.0,8.999999999999999e-08,0.0,0.0,0.0,8.999999999999999e-08
1538765373.7449765,2930,1538765373,744674696,base_link,0.0037256889493781117,-0.35808450764889305,-0.9305136712912131,-0.07684993275111336,1.0,0.0,0.0,0.0,1.0,0.0,0.0,0.0,1.0,0.13522912561893463,-0.2590544223785401,-0.2694630324840545,1.2184696791468346e-07,0.0,0.0,0.0,1.2184696791468346e-07,0.0,0.0,0.0,1.2184696791468346e-07,-0.0588399,0.6864655000000015,12.99381125,8.999999999999999e-08,0.0,0.0,0.0,8.999999999999999e-08,0.0,0.0,0.0,8.999999999999999e-08
1538765374.1087255,2931,1538765374,102767560,base_link,-0.02404845491288323,-0.32667531674829337,-0.9332983712781815,-0.14717017161503454,1.0,0.0,0.0,0.0,1.0,0.0,0.0,0.0,1.0,-0.1972634345293045,-0.24360559880733493,-0.2961184978485107,1.2184696791468346e-07,0.0,0.0,0.0,1.2184696791468346e-07,0.0,0.0,0.0,1.2184696791468346e-07,0.38245935,0.7943386500000019,16.2201991,8.999999999999999e-08,0.0,0.0,0.0,8.999999999999999e-08,0.0,0.0,0.0,8.999999999999999e-08
1538765374.5446494,2932,1538765374,543831368,base_link,-0.054805725500500745,-0.3182621277401683,-0.9153341856191275,-0.24055951266917946,1.0,0.0,0.0,0.0,1.0,0.0,0.0,0.0,1.0,0.08013620227575302,-0.23697531223297125,-0.34249484539031977,1.2184696791468346e-07,0.0,0.0,0.0,1.2184696791468346e-07,0.0,0.0,0.0,1.2184696791468346e-07,0.12748645,0.9708583500000019,15.2787607,8.999999999999999e-08,0.0,0.0,0.0,8.999999999999999e-08,0.0,0.0,0.0,8.999999999999999e-08
1538765374.919817,2933,1538765374,918873608,base_link,-0.0766379883305731,-0.3191007313953262,-0.8893334256840904,-0.31841388149484223,1.0,0.0,0.0,0.0,1.0,0.0,0.0,0.0,1.0,0.015635577961802483,-0.2748339772224427,-0.31895518302917475,1.2184696791468346e-07,0.0,0.0,0.0,1.2184696791468346e-07,0.0,0.0,0.0,1.2184696791468346e-07,-0.26477955,0.43149260000000134,11.0619012,8.999999999999999e-08,0.0,0.0,0.0,8.999999999999999e-08,0.0,0.0,0.0,8.999999999999999e-08
1538765375.3237987,2934,1538765375,317811048,base_link,-0.12457304971645637,-0.3278762742743265,-0.8609957360966997,-0.36832736319153675,1.0,0.0,0.0,0.0,1.0,0.0,0.0,0.0,1.0,0.07513614743947983,-0.29354748129844666,-0.10529410094022747,1.2184696791468346e-07,0.0,0.0,0.0,1.2184696791468346e-07,0.0,0.0,0.0,1.2184696791468346e-07,-0.08825985,0.6864655000000017,13.91563635,8.999999999999999e-08,0.0,0.0,0.0,8.999999999999999e-08,0.0,0.0,0.0,8.999999999999999e-08
1538765375.8347363,2935,1538765375,825554984,base_link,-0.15898374896066053,-0.33299563288816386,-0.8135140378191209,-0.4494807963807297,1.0,0.0,0.0,0.0,1.0,0.0,0.0,0.0,1.0,-0.04018031060695648,-0.21896171569824224,-0.478339284658432,1.2184696791468346e-07,0.0,0.0,0.0,1.2184696791468346e-07,0.0,0.0,0.0,1.2184696791468346e-07,-0.04903325,0.8924051500000014,10.93441475,8.999999999999999e-08,0.0,0.0,0.0,8.999999999999999e-08,0.0,0.0,0.0,8.999999999999999e-08
1538765376.1852698,2936,1538765376,184776584,base_link,-0.19148345112265283,-0.3473927491224857,-0.7561350093785848,-0.5204922798614092,1.0,0.0,0.0,0.0,1.0,0.0,0.0,0.0,1.0,0.17295755445957184,-0.3379311859607697,-0.26044908165931696,1.2184696791468346e-07,0.0,0.0,0.0,1.2184696791468346e-07,0.0,0.0,0.0,1.2184696791468346e-07,0.2157463,0.6080123000000017,13.58221025,8.999999999999999e-08,0.0,0.0,0.0,8.999999999999999e-08,0.0,0.0,0.0,8.999999999999999e-08
1538765376.5566144,2937,1538765376,555991496,base_link,-0.19893099469918607,-0.29499664313604235,-0.732976398459271,-0.5797836141080003,1.0,0.0,0.0,0.0,1.0,0.0,0.0,0.0,1.0,-0.4114910066127777,-0.27297782897949224,-0.2675370872020721,1.2184696791468346e-07,0.0,0.0,0.0,1.2184696791468346e-07,0.0,0.0,0.0,1.2184696791468346e-07,0.40207265000000003,1.1473780500000017,13.58221025,8.999999999999999e-08,0.0,0.0,0.0,8.999999999999999e-08,0.0,0.0,0.0,8.999999999999999e-08
1538765376.925377,2938,1538765376,924419496,base_link,-0.21023877428444526,-0.29300699657949847,-0.677056483901783,-0.6415146727467663,1.0,0.0,0.0,0.0,1.0,0.0,0.0,0.0,1.0,0.06410685926675797,-0.20579098165035253,-0.48518308997154236,1.2184696791468346e-07,0.0,0.0,0.0,1.2184696791468346e-07,0.0,0.0,0.0,1.2184696791468346e-07,-0.2549729,1.196411300000001,8.48275225,8.999999999999999e-08,0.0,0.0,0.0,8.999999999999999e-08,0.0,0.0,0.0,8.999999999999999e-08
1538765377.3549693,2939,1538765377,354624584,base_link,-0.2417854977126051,-0.2908574606866169,-0.5954656831946583,-0.7087752329168392,1.0,0.0,0.0,0.0,1.0,0.0,0.0,0.0,1.0,-0.00208858959376812,-0.38733351230621343,-0.3175536096096038,1.2184696791468346e-07,0.0,0.0,0.0,1.2184696791468346e-07,0.0,0.0,0.0,1.2184696791468346e-07,-0.20593965,0.7158854500000014,11.9248864,8.999999999999999e-08,0.0,0.0,0.0,8.999999999999999e-08,0.0,0.0,0.0,8.999999999999999e-08
1538765377.8222225,2940,1538765377,821893256,base_link,-0.2834304102661926,-0.23944776278522314,-0.5103363348321166,-0.7758149243109539,1.0,0.0,0.0,0.0,1.0,0.0,0.0,0.0,1.0,0.45194482803344727,-0.460704654455185,-0.40204507112503046,1.2184696791468346e-07,0.0,0.0,0.0,1.2184696791468346e-07,0.0,0.0,0.0,1.2184696791468346e-07,0.16671305,0.7747253500000022,18.13249585,8.999999999999999e-08,0.0,0.0,0.0,8.999999999999999e-08,0.0,0.0,0.0,8.999999999999999e-08
1538765378.1531281,2941,1538765378,149742856,base_link,-0.35118199177053727,-0.21343648244345362,-0.4418402829421415,-0.7974291448071432,1.0,0.0,0.0,0.0,1.0,0.0,0.0,0.0,1.0,0.1387273520231247,-0.46971580386161804,-0.1215298399329185,1.2184696791468346e-07,0.0,0.0,0.0,1.2184696791468346e-07,0.0,0.0,0.0,1.2184696791468346e-07,0.42168595,0.372652700000002,16.60265845,8.999999999999999e-08,0.0,0.0,0.0,8.999999999999999e-08,0.0,0.0,0.0,8.999999999999999e-08
1538765378.525318,2942,1538765378,524841576,base_link,-0.34350717796537755,-0.15147567380907095,-0.3903228707706044,-0.8406580728713335,1.0,0.0,0.0,0.0,1.0,0.0,0.0,0.0,1.0,-0.386860191822052,-0.284492701292038,-0.30273097753524775,1.2184696791468346e-07,0.0,0.0,0.0,1.2184696791468346e-07,0.0,0.0,0.0,1.2184696791468346e-07,0.53936575,1.5690640000000018,13.66066345,8.999999999999999e-08,0.0,0.0,0.0,8.999999999999999e-08,0.0,0.0,0.0,8.999999999999999e-08
1538765378.9155293,2943,1538765378,915116456,base_link,-0.29918113129503043,-0.12399439827065549,-0.3163201171875303,-0.8916600379836426,1.0,0.0,0.0,0.0,1.0,0.0,0.0,0.0,1.0,-0.11739303171634674,-0.20685277879238134,-0.36503663659095764,1.2184696791468346e-07,0.0,0.0,0.0,1.2184696791468346e-07,0.0,0.0,0.0,1.2184696791468346e-07,0.2353596,0.9218251000000017,14.0431228,8.999999999999999e-08,0.0,0.0,0.0,8.999999999999999e-08,0.0,0.0,0.0,8.999999999999999e-08
1538765379.2425363,2944,1538765379,242212360,base_link,-0.30311197050530436,-0.11798473206576418,-0.2559295450600243,-0.9103311509012146,1.0,0.0,0.0,0.0,1.0,0.0,0.0,0.0,1.0,0.07413329929113388,-0.16262355446815493,-0.3278094232082367,1.2184696791468346e-07,0.0,0.0,0.0,1.2184696791468346e-07,0.0,0.0,0.0,1.2184696791468346e-07,-0.1569064,0.41187930000000106,8.7475318,8.999999999999999e-08,0.0,0.0,0.0,8.999999999999999e-08,0.0,0.0,0.0,8.999999999999999e-08
1538765379.6180418,2945,1538765379,617219720,base_link,-0.32876664311467235,-0.10545733421082677,-0.1913528077748643,-0.9187901544928152,1.0,0.0,0.0,0.0,1.0,0.0,0.0,0.0,1.0,0.06271123141050339,-0.20644475519657138,-0.27048373222351074,1.2184696791468346e-07,0.0,0.0,0.0,1.2184696791468346e-07,0.0,0.0,0.0,1.2184696791468346e-07,-0.1765197,0.8335652500000014,11.2188076,8.999999999999999e-08,0.0,0.0,0.0,8.999999999999999e-08,0.0,0.0,0.0,8.999999999999999e-08
1538765380.119078,2946,1538765380,118669704,base_link,-0.3390459070728292,-0.07244311507187892,-0.10560607775969488,-0.9320124593137467,1.0,0.0,0.0,0.0,1.0,0.0,0.0,0.0,1.0,-0.07386698573827744,-0.27124291658401495,-0.25031512975692743,1.2184696791468346e-07,0.0,0.0,0.0,1.2184696791468346e-07,0.0,0.0,0.0,1.2184696791468346e-07,0.08825985,0.9218251000000017,13.26839745,8.999999999999999e-08,0.0,0.0,0.0,8.999999999999999e-08,0.0,0.0,0.0,8.999999999999999e-08
1538765380.511459,2947,1538765380,510873608,base_link,-0.32479998981045966,-0.041345358036999624,-0.0356858208540769,-0.9442044535893104,1.0,0.0,0.0,0.0,1.0,0.0,0.0,0.0,1.0,0.014440611004829407,-0.2487846612930298,-0.3206874728202819,1.2184696791468346e-07,0.0,0.0,0.0,1.2184696791468346e-07,0.0,0.0,0.0,1.2184696791468346e-07,0.1176798,0.892405150000002,15.7298666,8.999999999999999e-08,0.0,0.0,0.0,8.999999999999999e-08,0.0,0.0,0.0,8.999999999999999e-08
1538765381.006057,2948,1538765381,5820328,base_link,-0.3320527935145172,-0.011390543814737922,0.054281332028274565,-0.9416287669904984,1.0,0.0,0.0,0.0,1.0,0.0,0.0,0.0,1.0,-0.052992772310972214,-0.20916403830051425,-0.321610689163208,1.2184696791468346e-07,0.0,0.0,0.0,1.2184696791468346e-07,0.0,0.0,0.0,1.2184696791468346e-07,-0.196133,1.0689248500000015,13.0036179,8.999999999999999e-08,0.0,0.0,0.0,8.999999999999999e-08,0.0,0.0,0.0,8.999999999999999e-08
1538765381.4140272,2949,1538765381,412877192,base_link,-0.33612966144968215,0.0038993188148513575,0.13702265927143376,-0.9317866906393795,1.0,0.0,0.0,0.0,1.0,0.0,0.0,0.0,1.0,0.17140144109725952,-0.17221152782440188,-0.3160550892353058,1.2184696791468346e-07,0.0,0.0,0.0,1.2184696791468346e-07,0.0,0.0,0.0,1.2184696791468346e-07,-0.42168595,0.6668522000000014,11.69933345,8.999999999999999e-08,0.0,0.0,0.0,8.999999999999999e-08,0.0,0.0,0.0,8.999999999999999e-08
1538765381.8680067,2950,1538765381,867183080,base_link,-0.3408021295355485,0.027766471622320585,0.20879801492193012,-0.9162348610058141,1.0,0.0,0.0,0.0,1.0,0.0,0.0,0.0,1.0,0.06883320212364197,-0.21131800115108493,-0.2573992609977722,1.2184696791468346e-07,0.0,0.0,0.0,1.2184696791468346e-07,0.0,0.0,0.0,1.2184696791468346e-07,-0.5099458,0.6570455500000014,11.2384209,8.999999999999999e-08,0.0,0.0,0.0,8.999999999999999e-08,0.0,0.0,0.0,8.999999999999999e-08
1538765382.2399569,2951,1538765382,239451368,base_link,-0.3518805886900641,0.04318179232922782,0.27657452377165487,-0.8932087756593369,1.0,0.0,0.0,0.0,1.0,0.0,0.0,0.0,1.0,0.11240309476852417,-0.22554944455623632,-0.37564191222190857,1.2184696791468346e-07,0.0,0.0,0.0,1.2184696791468346e-07,0.0,0.0,0.0,1.2184696791468346e-07,-0.7453054,0.7943386500000013,10.50292215,8.999999999999999e-08,0.0,0.0,0.0,8.999999999999999e-08,0.0,0.0,0.0,8.999999999999999e-08
1538765382.8457146,2952,1538765382,845364968,base_link,-0.3640457450547757,0.09157139192018726,0.3870896934167668,-0.8421680027998133,1.0,0.0,0.0,0.0,1.0,0.0,0.0,0.0,1.0,-0.023107895627617836,-0.32798862457275396,-0.2681900262832641,1.2184696791468346e-07,0.0,0.0,0.0,1.2184696791468346e-07,0.0,0.0,0.0,1.2184696791468346e-07,-0.6668522,0.5589790500000014,11.66010685,8.999999999999999e-08,0.0,0.0,0.0,8.999999999999999e-08,0.0,0.0,0.0,8.999999999999999e-08
1538765383.1768675,2953,1538765383,163549160,base_link,-0.34863323761756587,0.11624408998270247,0.43471073995390774,-0.8221731871942268,1.0,0.0,0.0,0.0,1.0,0.0,0.0,0.0,1.0,-0.003912391606718302,-0.31306746602058416,-0.2803919911384582,1.2184696791468346e-07,0.0,0.0,0.0,1.2184696791468346e-07,0.0,0.0,0.0,1.2184696791468346e-07,-0.5491724,0.7453054000000016,12.748645,8.999999999999999e-08,0.0,0.0,0.0,8.999999999999999e-08,0.0,0.0,0.0,8.999999999999999e-08
1538765383.4600878,2954,1538765383,458912584,base_link,-0.3295072742896591,0.14197023412199392,0.4849431456748574,-0.7975584958337035,1.0,0.0,0.0,0.0,1.0,0.0,0.0,0.0,1.0,-0.14747492969036102,-0.3060570061206818,-0.2550480961799621,1.2184696791468346e-07,0.0,0.0,0.0,1.2184696791468346e-07,0.0,0.0,0.0,1.2184696791468346e-07,-0.3530394,1.0885381500000018,13.1212977,8.999999999999999e-08,0.0,0.0,0.0,8.999999999999999e-08,0.0,0.0,0.0,8.999999999999999e-08
1538765383.8477693,2955,1538765383,847286472,base_link,-0.30448283813674504,0.1655787820280936,0.5489912140520598,-0.7605803804437312,1.0,0.0,0.0,0.0,1.0,0.0,0.0,0.0,1.0,-0.026670273393392563,-0.30580577254295355,-0.2633776664733886,1.2184696791468346e-07,0.0,0.0,0.0,1.2184696791468346e-07,0.0,0.0,0.0,1.2184696791468346e-07,-0.20593965,0.3726527000000017,14.22944915,8.999999999999999e-08,0.0,0.0,0.0,8.999999999999999e-08,0.0,0.0,0.0,8.999999999999999e-08
1538765384.1921709,2956,1538765384,191769320,base_link,-0.2706993658087634,0.18954934000415247,0.5890792001413167,-0.7374134505252737,1.0,0.0,0.0,0.0,1.0,0.0,0.0,0.0,1.0,-0.12946327030658722,-0.2790473699569702,-0.19774314761161801,1.2184696791468346e-07,0.0,0.0,0.0,1.2184696791468346e-07,0.0,0.0,0.0,1.2184696791468346e-07,-0.1765197,0.9610517000000018,14.2784824,8.999999999999999e-08,0.0,0.0,0.0,8.999999999999999e-08,0.0,0.0,0.0,8.999999999999999e-08
1538765384.6424358,2957,1538765384,642036040,base_link,-0.186068547656468,0.14493854412082255,0.6667278242777097,-0.7069973991006334,1.0,0.0,0.0,0.0,1.0,0.0,0.0,0.0,1.0,-0.060566991567611694,-0.154624953866005,-0.3750588595867157,1.2184696791468346e-07,0.0,0.0,0.0,1.2184696791468346e-07,0.0,0.0,0.0,1.2184696791468346e-07,-0.2157463,0.4903325000000017,14.2588691,8.999999999999999e-08,0.0,0.0,0.0,8.999999999999999e-08,0.0,0.0,0.0,8.999999999999999e-08
1538765384.9192977,2958,1538765384,918886088,base_link,0.19176577011045,-0.17741204761530682,-0.6881748867809221,0.6768797381950172,1.0,0.0,0.0,0.0,1.0,0.0,0.0,0.0,1.0,0.2660098373889923,-0.2295587956905365,-0.10334775596857068,1.2184696791468346e-07,0.0,0.0,0.0,1.2184696791468346e-07,0.0,0.0,0.0,1.2184696791468346e-07,-0.38245935,0.25497290000000156,12.38579895,8.999999999999999e-08,0.0,0.0,0.0,8.999999999999999e-08,0.0,0.0,0.0,8.999999999999999e-08
1538765385.2913089,2959,1538765385,290815144,base_link,0.16290345636401268,-0.17118720780581043,-0.7112473186173105,0.6620307058951228,1.0,0.0,0.0,0.0,1.0,0.0,0.0,0.0,1.0,-0.10357056558132172,-0.03958003968000415,-0.2377060204744339,1.2184696791468346e-07,0.0,0.0,0.0,1.2184696791468346e-07,0.0,0.0,0.0,1.2184696791468346e-07,-0.196133,1.2552512000000013,12.32695905,8.999999999999999e-08,0.0,0.0,0.0,8.999999999999999e-08,0.0,0.0,0.0,8.999999999999999e-08
1538765385.7111795,2960,1538765385,710669384,base_link,0.16032880161195026,-0.15648887059840488,-0.7552476875682529,0.6159600954407016,1.0,0.0,0.0,0.0,1.0,0.0,0.0,0.0,1.0,-0.047769125550985336,-0.04129875451326374,-0.2603161334991455,1.2184696791468346e-07,0.0,0.0,0.0,1.2184696791468346e-07,0.0,0.0,0.0,1.2184696791468346e-07,-0.2745862,0.3824593500000013,10.5715687,8.999999999999999e-08,0.0,0.0,0.0,8.999999999999999e-08,0.0,0.0,0.0,8.999999999999999e-08
1538765386.0433066,2961,1538765386,42966920,base_link,0.16479320194228453,-0.156916654867975,-0.7770780973086913,0.5868304650422967,1.0,0.0,0.0,0.0,1.0,0.0,0.0,0.0,1.0,0.16613435745239258,-0.046054307371377966,-0.188804030418396,1.2184696791468346e-07,0.0,0.0,0.0,1.2184696791468346e-07,0.0,0.0,0.0,1.2184696791468346e-07,-0.55897905,-0.09806649999999882,9.6497436,8.999999999999999e-08,0.0,0.0,0.0,8.999999999999999e-08,0.0,0.0,0.0,8.999999999999999e-08
1538765386.369281,2962,1538765386,368574824,base_link,0.17724695537275514,-0.18671427427091503,-0.7803719471932692,0.5698604396063649,1.0,0.0,0.0,0.0,1.0,0.0,0.0,0.0,1.0,0.3813556730747223,-0.10552220046520235,-0.10293134301900862,1.2184696791468346e-07,0.0,0.0,0.0,1.2184696791468346e-07,0.0,0.0,0.0,1.2184696791468346e-07,-0.2353596,0.6472389000000017,13.6704701,8.999999999999999e-08,0.0,0.0,0.0,8.999999999999999e-08,0.0,0.0,0.0,8.999999999999999e-08
1538765386.6640713,2963,1538765386,663676616,base_link,0.17915548095550374,-0.19926605118750704,-0.7885908826418804,0.5534625319765015,1.0,0.0,0.0,0.0,1.0,0.0,0.0,0.0,1.0,0.04150285944342613,-0.058531153947114965,-0.158053457736969,1.2184696791468346e-07,0.0,0.0,0.0,1.2184696791468346e-07,0.0,0.0,0.0,1.2184696791468346e-07,-0.6472389000000001,0.647238900000001,8.32584585,8.999999999999999e-08,0.0,0.0,0.0,8.999999999999999e-08,0.0,0.0,0.0,8.999999999999999e-08
1538765387.0252512,2964,1538765387,24964616,base_link,0.19195963303457425,-0.21968889974968525,-0.8053368518327155,0.5160628272721985,1.0,0.0,0.0,0.0,1.0,0.0,0.0,0.0,1.0,0.10251583904027939,-0.09252506494522098,-0.25482457876205444,1.2184696791468346e-07,0.0,0.0,0.0,1.2184696791468346e-07,0.0,0.0,0.0,1.2184696791468346e-07,-0.5491724,0.8433719000000013,10.30678915,8.999999999999999e-08,0.0,0.0,0.0,8.999999999999999e-08,0.0,0.0,0.0,8.999999999999999e-08
1538765387.375508,2965,1538765387,375143720,base_link,0.1838104441069177,-0.20984856778338004,-0.8367046870772494,0.47127758896370653,1.0,0.0,0.0,0.0,1.0,0.0,0.0,0.0,1.0,-0.005586625542491674,-0.09089063107967381,-0.2977614998817444,1.2184696791468346e-07,0.0,0.0,0.0,1.2184696791468346e-07,0.0,0.0,0.0,1.2184696791468346e-07,-0.46091255,0.7845320000000012,10.5323421,8.999999999999999e-08,0.0,0.0,0.0,8.999999999999999e-08,0.0,0.0,0.0,8.999999999999999e-08
1538765387.8161254,2966,1538765387,815559272,base_link,0.19152392748029856,-0.21859855779331525,-0.8697808451353258,0.39876626884540056,1.0,0.0,0.0,0.0,1.0,0.0,0.0,0.0,1.0,0.11086930334568024,-0.12956207990646368,-0.3718593418598175,1.2184696791468346e-07,0.0,0.0,0.0,1.2184696791468346e-07,0.0,0.0,0.0,1.2184696791468346e-07,-0.588399,1.0395049000000012,9.639936950000001,8.999999999999999e-08,0.0,0.0,0.0,8.999999999999999e-08,0.0,0.0,0.0,8.999999999999999e-08
1538765388.115632,2967,1538765388,115227272,base_link,0.18315680108357124,-0.22927743365219216,-0.8935865624279467,0.33968882831630337,1.0,0.0,0.0,0.0,1.0,0.0,0.0,0.0,1.0,0.22703197598457336,-0.22215767204761508,-0.3102705180644989,1.2184696791468346e-07,0.0,0.0,0.0,1.2184696791468346e-07,0.0,0.0,0.0,1.2184696791468346e-07,-0.6668522,0.25497290000000095,7.77667345,8.999999999999999e-08,0.0,0.0,0.0,8.999999999999999e-08,0.0,0.0,0.0,8.999999999999999e-08
1538765388.5511541,2968,1538765388,550720424,base_link,0.15321704950761994,-0.2966442905532572,-0.9003777502025052,0.2790100492143773,1.0,0.0,0.0,0.0,1.0,0.0,0.0,0.0,1.0,0.08912333101034164,-0.303598552942276,-0.13062141835689542,1.2184696791468346e-07,0.0,0.0,0.0,1.2184696791468346e-07,0.0,0.0,0.0,1.2184696791468346e-07,-0.12748645,1.0493115500000019,15.75928655,8.999999999999999e-08,0.0,0.0,0.0,8.999999999999999e-08,0.0,0.0,0.0,8.999999999999999e-08
1538765388.9612503,2969,1538765388,960435432,base_link,0.12136484160321052,-0.3169479066769176,-0.9158686131027265,0.21447443486121032,1.0,0.0,0.0,0.0,1.0,0.0,0.0,0.0,1.0,0.08465790003538132,-0.28165209293365484,-0.30509516596794123,1.2184696791468346e-07,0.0,0.0,0.0,1.2184696791468346e-07,0.0,0.0,0.0,1.2184696791468346e-07,-0.34323275,0.9218251000000017,13.337044,8.999999999999999e-08,0.0,0.0,0.0,8.999999999999999e-08,0.0,0.0,0.0,8.999999999999999e-08
1538765389.357326,2970,1538765389,356929608,base_link,0.08509855260392617,-0.34796873782079335,-0.9234581562370185,0.13748100786453044,1.0,0.0,0.0,0.0,1.0,0.0,0.0,0.0,1.0,0.033228300511837006,-0.3363515436649323,-0.24542048573493955,1.2184696791468346e-07,0.0,0.0,0.0,1.2184696791468346e-07,0.0,0.0,0.0,1.2184696791468346e-07,-0.20593965,0.7158854500000018,14.60210185,8.999999999999999e-08,0.0,0.0,0.0,8.999999999999999e-08,0.0,0.0,0.0,8.999999999999999e-08
1538765389.8210826,2971,1538765389,819711368,base_link,0.037422681836238834,-0.3602450699307857,-0.9299659153193314,0.06313817243969942,1.0,0.0,0.0,0.0,1.0,0.0,0.0,0.0,1.0,-0.028798768296837807,-0.29523253440856934,-0.19493524730205533,1.2184696791468346e-07,0.0,0.0,0.0,1.2184696791468346e-07,0.0,0.0,0.0,1.2184696791468346e-07,-0.2353596,0.7060788000000016,12.3367657,8.999999999999999e-08,0.0,0.0,0.0,8.999999999999999e-08,0.0,0.0,0.0,8.999999999999999e-08
1538765390.1347675,2972,1538765390,134341768,base_link,0.008794852737913085,-0.34654550137052004,-0.9379623540158666,0.007449059953262383,1.0,0.0,0.0,0.0,1.0,0.0,0.0,0.0,1.0,-0.11775650829076767,-0.20209939777851108,-0.3075410723686218,1.2184696791468346e-07,0.0,0.0,0.0,1.2184696791468346e-07,0.0,0.0,0.0,1.2184696791468346e-07,-0.1176798,1.2062179500000016,13.2585908,8.999999999999999e-08,0.0,0.0,0.0,8.999999999999999e-08,0.0,0.0,0.0,8.999999999999999e-08
1538765390.5876334,2973,1538765390,587189224,base_link,-0.00404252795945045,-0.3366182136516947,-0.9375140358297878,-0.08797311423260303,1.0,0.0,0.0,0.0,1.0,0.0,0.0,0.0,1.0,-0.0071321697905659676,-0.20530436933040624,-0.37061548233032227,1.2184696791468346e-07,0.0,0.0,0.0,1.2184696791468346e-07,0.0,0.0,0.0,1.2184696791468346e-07,-0.3138128,0.7158854500000016,11.99353295,8.999999999999999e-08,0.0,0.0,0.0,8.999999999999999e-08,0.0,0.0,0.0,8.999999999999999e-08
1538765391.0010452,2974,1538765390,998680392,base_link,-0.025124220303337046,-0.3274780906826537,-0.9303930832763174,-0.16277464258471191,1.0,0.0,0.0,0.0,1.0,0.0,0.0,0.0,1.0,0.09071828424930573,-0.2462682276964188,-0.271290898323059,1.2184696791468346e-07,0.0,0.0,0.0,1.2184696791468346e-07,0.0,0.0,0.0,1.2184696791468346e-07,-0.30400615,0.7256921000000015,12.91535805,8.999999999999999e-08,0.0,0.0,0.0,8.999999999999999e-08,0.0,0.0,0.0,8.999999999999999e-08
1538765391.3916812,2975,1538765391,391245704,base_link,-0.05007379052438767,-0.3251557750324981,-0.9179936067406518,-0.22148154651985114,1.0,0.0,0.0,0.0,1.0,0.0,0.0,0.0,1.0,-0.018033567816019058,-0.20064170658588412,-0.25497162342071533,1.2184696791468346e-07,0.0,0.0,0.0,1.2184696791468346e-07,0.0,0.0,0.0,1.2184696791468346e-07,-0.26477955,0.7551120500000014,11.2776475,8.999999999999999e-08,0.0,0.0,0.0,8.999999999999999e-08,0.0,0.0,0.0,8.999999999999999e-08
1538765391.7324965,2976,1538765391,724693480,base_link,-0.07353782544140755,-0.3317694951947787,-0.9002677712346854,-0.27210132370806794,1.0,0.0,0.0,0.0,1.0,0.0,0.0,0.0,1.0,0.0746842697262764,-0.22411514818668368,-0.24855166673660276,1.2184696791468346e-07,0.0,0.0,0.0,1.2184696791468346e-07,0.0,0.0,0.0,1.2184696791468346e-07,-0.20593965,0.9414384000000015,11.77778665,8.999999999999999e-08,0.0,0.0,0.0,8.999999999999999e-08,0.0,0.0,0.0,8.999999999999999e-08
