Time,header.seq,header.stamp.secs,header.stamp.nsecs,header.frame_id,orientation.x,orientation.y,orientation.z,orientation.w,orientation_covariance_0,orientation_covariance_1,orientation_covariance_2,orientation_covariance_3,orientation_covariance_4,orientation_covariance_5,orientation_covariance_6,orientation_covariance_7,orientation_covariance_8,angular_velocity.x,angular_velocity.y,angular_velocity.z,angular_velocity_covariance_0,angular_velocity_covariance_1,angular_velocity_covariance_2,angular_velocity_covariance_3,angular_velocity_covariance_4,angular_velocity_covariance_5,angular_velocity_covariance_6,angular_velocity_covariance_7,angular_velocity_covariance_8,linear_acceleration.x,linear_acceleration.y,linear_acceleration.z,linear_acceleration_covariance_0,linear_acceleration_covariance_1,linear_acceleration_covariance_2,linear_acceleration_covariance_3,linear_acceleration_covariance_4,linear_acceleration_covariance_5,linear_acceleration_covariance_6,linear_acceleration_covariance_7,linear_acceleration_covariance_8
1538769413.0248885,1129,1538769413,24003488,base_link,-0.06956110237764919,0.21493662380341413,-0.8718405007388945,0.43457754435238544,1.0,0.0,0.0,0.0,1.0,0.0,0.0,0.0,1.0,0.5859648585319519,-0.2964675724506378,0.21360599994659427,1.2184696791468346e-07,0.0,0.0,0.0,1.2184696791468346e-07,0.0,0.0,0.0,1.2184696791468346e-07,-1.7455837,0.9806650000000018,15.0826277,8.999999999999999e-08,0.0,0.0,0.0,8.999999999999999e-08,0.0,0.0,0.0,8.999999999999999e-08
1538769413.263366,1130,1538769413,262805088,base_link,-0.06644541198167164,0.1450498719090943,-0.8698700206477519,0.46676727505687576,1.0,0.0,0.0,0.0,1.0,0.0,0.0,0.0,1.0,0.5192910432815552,-0.25866568088531494,0.17753046751022342,1.2184696791468346e-07,0.0,0.0,0.0,1.2184696791468346e-07,0.0,0.0,0.0,1.2184696791468346e-07,-1.50041745,1.4219642500000023,17.5539035,8.999999999999999e-08,0.0,0.0,0.0,8.999999999999999e-08,0.0,0.0,0.0,8.999999999999999e-08
1538769413.6312962,1131,1538769413,628896256,base_link,-0.11984651400166722,0.2144643379366172,-0.835181703664642,0.49205018311030324,1.0,0.0,0.0,0.0,1.0,0.0,0.0,0.0,1.0,-0.6033163666725159,-0.010797072201967224,0.12470946460962296,1.2184696791468346e-07,0.0,0.0,0.0,1.2184696791468346e-07,0.0,0.0,0.0,1.2184696791468346e-07,-1.55925735,1.5788706500000016,12.9055514,8.999999999999999e-08,0.0,0.0,0.0,8.999999999999999e-08,0.0,0.0,0.0,8.999999999999999e-08
1538769413.977104,1132,1538769413,976686592,base_link,-0.1538930290561879,0.268547091051552,-0.818085083019096,0.48470216879780914,1.0,0.0,0.0,0.0,1.0,0.0,0.0,0.0,1.0,-0.3211967945098877,0.008913254365324974,-0.0008096809033304464,1.2184696791468346e-07,0.0,0.0,0.0,1.2184696791468346e-07,0.0,0.0,0.0,1.2184696791468346e-07,-1.8632635,0.5393657500000013,10.20872265,8.999999999999999e-08,0.0,0.0,0.0,8.999999999999999e-08,0.0,0.0,0.0,8.999999999999999e-08
1538769414.2768567,1133,1538769414,276423616,base_link,-0.09083153146235308,0.16714798882089782,-0.8524037100176655,0.48705143247243615,1.0,0.0,0.0,0.0,1.0,0.0,0.0,0.0,1.0,2.0585975646972656,0.11763799190521239,-0.1401835232973099,1.2184696791468346e-07,0.0,0.0,0.0,1.2184696791468346e-07,0.0,0.0,0.0,1.2184696791468346e-07,-2.04958985,-1.029698249999999,9.5320638,8.999999999999999e-08,0.0,0.0,0.0,8.999999999999999e-08,0.0,0.0,0.0,8.999999999999999e-08
1538769414.6177776,1134,1538769414,617533888,base_link,0.08885994934067062,-0.06277417161618275,-0.8533951142533484,0.5097843580864265,1.0,0.0,0.0,0.0,1.0,0.0,0.0,0.0,1.0,1.2431796789169312,0.22674177587032324,0.34048026800155634,1.2184696791468346e-07,0.0,0.0,0.0,1.2184696791468346e-07,0.0,0.0,0.0,1.2184696791468346e-07,-2.01036325,-0.696272149999999,8.11009955,8.999999999999999e-08,0.0,0.0,0.0,8.999999999999999e-08,0.0,0.0,0.0,8.999999999999999e-08
1538769415.0132911,1135,1538769415,13080800,base_link,0.17807694653902115,-0.17223877972226573,-0.8163827129352444,0.5216719945440944,1.0,0.0,0.0,0.0,1.0,0.0,0.0,0.0,1.0,0.43577584624290466,0.05121509358286856,-0.10618305206298828,1.2184696791468346e-07,0.0,0.0,0.0,1.2184696791468346e-07,0.0,0.0,0.0,1.2184696791468346e-07,-1.97113665,0.784532000000001,7.75706015,8.999999999999999e-08,0.0,0.0,0.0,8.999999999999999e-08,0.0,0.0,0.0,8.999999999999999e-08
1538769415.3535423,1136,1538769415,353283424,base_link,0.21221147037160834,-0.20060905539978147,-0.8262408388623318,0.481713997025619,1.0,0.0,0.0,0.0,1.0,0.0,0.0,0.0,1.0,0.1943986862897873,-0.042479258030653035,-0.3060673773288727,1.2184696791468346e-07,0.0,0.0,0.0,1.2184696791468346e-07,0.0,0.0,0.0,1.2184696791468346e-07,-1.9417167,0.29419950000000106,8.87501825,8.999999999999999e-08,0.0,0.0,0.0,8.999999999999999e-08,0.0,0.0,0.0,8.999999999999999e-08
1538769415.7133398,1137,1538769415,713040352,base_link,0.2429742652105631,-0.26106177108568873,-0.8322685924069907,0.4244281425823183,1.0,0.0,0.0,0.0,1.0,0.0,0.0,0.0,1.0,0.2213779240846634,-0.1536284536123276,-0.1481545716524124,1.2184696791468346e-07,0.0,0.0,0.0,1.2184696791468346e-07,0.0,0.0,0.0,1.2184696791468346e-07,-1.7259704,0.29419950000000133,10.7284751,8.999999999999999e-08,0.0,0.0,0.0,8.999999999999999e-08,0.0,0.0,0.0,8.999999999999999e-08
1538769416.2359776,1138,1538769416,235138848,base_link,0.2298701349966725,-0.3000450737342968,-0.8590097605173357,0.3453040777348877,1.0,0.0,0.0,0.0,1.0,0.0,0.0,0.0,1.0,0.21670015156269073,-0.2742239236831665,-0.2081101983785629,1.2184696791468346e-07,0.0,0.0,0.0,1.2184696791468346e-07,0.0,0.0,0.0,1.2184696791468346e-07,-1.3337044,0.17651970000000153,12.44463885,8.999999999999999e-08,0.0,0.0,0.0,8.999999999999999e-08,0.0,0.0,0.0,8.999999999999999e-08
1538769416.5463514,1139,1538769416,545702080,base_link,0.20799709382515746,-0.32767577608175824,-0.8735229124487441,0.29380863866906615,1.0,0.0,0.0,0.0,1.0,0.0,0.0,0.0,1.0,0.0437229685485363,-0.3014495670795441,-0.24480746686458585,1.2184696791468346e-07,0.0,0.0,0.0,1.2184696791468346e-07,0.0,0.0,0.0,1.2184696791468346e-07,-1.1375714000000001,0.6472389000000017,13.8862164,8.999999999999999e-08,0.0,0.0,0.0,8.999999999999999e-08,0.0,0.0,0.0,8.999999999999999e-08
1538769416.9077792,1140,1538769416,897829920,base_link,0.17783390528572549,-0.3379835076573045,-0.8962166294004654,0.2256944923310292,1.0,0.0,0.0,0.0,1.0,0.0,0.0,0.0,1.0,-0.1552824229001999,-0.3913927376270295,-0.2893910408020019,1.2184696791468346e-07,0.0,0.0,0.0,1.2184696791468346e-07,0.0,0.0,0.0,1.2184696791468346e-07,-0.8041453000000001,0.4903325000000019,15.19050085,8.999999999999999e-08,0.0,0.0,0.0,8.999999999999999e-08,0.0,0.0,0.0,8.999999999999999e-08
1538769417.3806558,1141,1538769417,378463104,base_link,0.11236323501099808,-0.35861460253970023,-0.9153978014477953,0.1442807518960809,1.0,0.0,0.0,0.0,1.0,0.0,0.0,0.0,1.0,0.0032700002193450928,-0.3794735670089722,-0.22701270878314966,1.2184696791468346e-07,0.0,0.0,0.0,1.2184696791468346e-07,0.0,0.0,0.0,1.2184696791468346e-07,-0.5295591,1.098344800000002,16.09271265,8.999999999999999e-08,0.0,0.0,0.0,8.999999999999999e-08,0.0,0.0,0.0,8.999999999999999e-08
1538769417.7825637,1142,1538769417,782216768,base_link,0.06150710057469607,-0.3506923763733376,-0.9326522427246278,0.05823682574829497,1.0,0.0,0.0,0.0,1.0,0.0,0.0,0.0,1.0,0.09497940540313721,-0.38086280226707464,-0.2937756478786468,1.2184696791468346e-07,0.0,0.0,0.0,1.2184696791468346e-07,0.0,0.0,0.0,1.2184696791468346e-07,-0.63743225,0.382459350000002,15.77889985,8.999999999999999e-08,0.0,0.0,0.0,8.999999999999999e-08,0.0,0.0,0.0,8.999999999999999e-08
1538769418.1557937,1143,1538769418,155542656,base_link,0.008403857276435946,-0.36899580987237673,-0.9291620655596975,-0.020720120760806492,1.0,0.0,0.0,0.0,1.0,0.0,0.0,0.0,1.0,0.07861097157001495,-0.3810191452503205,-0.30147752165794367,1.2184696791468346e-07,0.0,0.0,0.0,1.2184696791468346e-07,0.0,0.0,0.0,1.2184696791468346e-07,-0.42168595,0.3236194500000021,17.2793173,8.999999999999999e-08,0.0,0.0,0.0,8.999999999999999e-08,0.0,0.0,0.0,8.999999999999999e-08
1538769418.4624403,1144,1538769418,462008384,base_link,-0.0322919788246444,-0.38389345260242075,-0.9196496332140245,-0.07633870107547926,1.0,0.0,0.0,0.0,1.0,0.0,0.0,0.0,1.0,0.046994052827358246,-0.36848196387290955,-0.1959438025951385,1.2184696791468346e-07,0.0,0.0,0.0,1.2184696791468346e-07,0.0,0.0,0.0,1.2184696791468346e-07,-0.1569064,0.735498750000002,16.11232595,8.999999999999999e-08,0.0,0.0,0.0,8.999999999999999e-08,0.0,0.0,0.0,8.999999999999999e-08
1538769418.8537621,1145,1538769418,853367392,base_link,-0.07286676567429197,-0.38214630284244194,-0.9073470857740986,-0.15929815950371506,1.0,0.0,0.0,0.0,1.0,0.0,0.0,0.0,1.0,0.029543228447437286,-0.30866882205009466,-0.3040244877338409,1.2184696791468346e-07,0.0,0.0,0.0,1.2184696791468346e-07,0.0,0.0,0.0,1.2184696791468346e-07,-0.22555295,0.43149260000000167,13.7096967,8.999999999999999e-08,0.0,0.0,0.0,8.999999999999999e-08,0.0,0.0,0.0,8.999999999999999e-08
1538769419.3892992,1146,1538769419,387861696,base_link,-0.12271539345761909,-0.37636276907633015,-0.881970209682928,-0.25577440742496194,1.0,0.0,0.0,0.0,1.0,0.0,0.0,0.0,1.0,-0.03988533467054367,-0.2754592895507813,-0.35045653581619257,1.2184696791468346e-07,0.0,0.0,0.0,1.2184696791468346e-07,0.0,0.0,0.0,1.2184696791468346e-07,-0.1372931,0.8335652500000016,12.944778,8.999999999999999e-08,0.0,0.0,0.0,8.999999999999999e-08,0.0,0.0,0.0,8.999999999999999e-08
1538769419.690085,1147,1538769419,689753536,base_link,-0.14163556136464567,-0.3738075348802562,-0.8575159735938842,-0.3238420134185815,1.0,0.0,0.0,0.0,1.0,0.0,0.0,0.0,1.0,0.06347832828760147,-0.27220129966735845,-0.3060955703258514,1.2184696791468346e-07,0.0,0.0,0.0,1.2184696791468346e-07,0.0,0.0,0.0,1.2184696791468346e-07,-0.22555295,0.3236194500000016,12.89574475,8.999999999999999e-08,0.0,0.0,0.0,8.999999999999999e-08,0.0,0.0,0.0,8.999999999999999e-08
1538769420.0936499,1148,1538769420,93326336,base_link,-0.1701656324164104,-0.37318706113271893,-0.8196953009480746,-0.3998433300070077,1.0,0.0,0.0,0.0,1.0,0.0,0.0,0.0,1.0,0.020433280616998672,-0.2718379199504853,-0.32320415973663325,1.2184696791468346e-07,0.0,0.0,0.0,1.2184696791468346e-07,0.0,0.0,0.0,1.2184696791468346e-07,-0.1765197,0.5295591000000015,12.7682583,8.999999999999999e-08,0.0,0.0,0.0,8.999999999999999e-08,0.0,0.0,0.0,8.999999999999999e-08
1538769420.4296963,1149,1538769420,428183904,base_link,-0.18563824958863917,-0.3520748408775377,-0.7913578703728688,-0.46404145042187805,1.0,0.0,0.0,0.0,1.0,0.0,0.0,0.0,1.0,-0.15651322901248932,-0.29254925251007086,-0.27551418542861933,1.2184696791468346e-07,0.0,0.0,0.0,1.2184696791468346e-07,0.0,0.0,0.0,1.2184696791468346e-07,-0.20593965,0.47071920000000156,12.26811915,8.999999999999999e-08,0.0,0.0,0.0,8.999999999999999e-08,0.0,0.0,0.0,8.999999999999999e-08
1538769420.942469,1150,1538769420,942206496,base_link,-0.17478501802370325,-0.27296490531256506,-0.7668063401406877,-0.554029236288303,1.0,0.0,0.0,0.0,1.0,0.0,0.0,0.0,1.0,-0.37682875990867615,-0.21665956079959875,-0.37011057138442993,1.2184696791468346e-07,0.0,0.0,0.0,1.2184696791468346e-07,0.0,0.0,0.0,1.2184696791468346e-07,-0.34323275,0.9218251000000015,12.6701918,8.999999999999999e-08,0.0,0.0,0.0,8.999999999999999e-08,0.0,0.0,0.0,8.999999999999999e-08
1538769421.2332113,1151,1538769421,232810112,base_link,-0.14409204077412857,-0.2073354947309042,-0.7532096133590238,-0.6073917638178737,1.0,0.0,0.0,0.0,1.0,0.0,0.0,0.0,1.0,-0.5000218749046326,-0.15835475921630862,-0.2820415794849396,1.2184696791468346e-07,0.0,0.0,0.0,1.2184696791468346e-07,0.0,0.0,0.0,1.2184696791468346e-07,-0.4903325,0.5687857000000015,12.40541225,8.999999999999999e-08,0.0,0.0,0.0,8.999999999999999e-08,0.0,0.0,0.0,8.999999999999999e-08
1538769421.7132936,1152,1538769421,713015616,base_link,-0.0900370295773351,-0.12171149972756345,-0.734150348218529,-0.661893428241715,1.0,0.0,0.0,0.0,1.0,0.0,0.0,0.0,1.0,-0.532417893409729,-0.06842083483934405,-0.19960786402225494,1.2184696791468346e-07,0.0,0.0,0.0,1.2184696791468346e-07,0.0,0.0,0.0,1.2184696791468346e-07,-0.67665885,0.6178189500000013,10.75789505,8.999999999999999e-08,0.0,0.0,0.0,8.999999999999999e-08,0.0,0.0,0.0,8.999999999999999e-08
1538769422.0548275,1153,1538769422,54520192,base_link,-0.03662458544962714,-0.05885575230863925,-0.72591165089581,-0.6842856970992064,1.0,0.0,0.0,0.0,1.0,0.0,0.0,0.0,1.0,-0.45579594373703003,-0.02857960760593415,-0.04281333833932876,1.2184696791468346e-07,0.0,0.0,0.0,1.2184696791468346e-07,0.0,0.0,0.0,1.2184696791468346e-07,-0.65704555,0.3922660000000013,10.1008495,8.999999999999999e-08,0.0,0.0,0.0,8.999999999999999e-08,0.0,0.0,0.0,8.999999999999999e-08
1538769422.4593961,1154,1538769422,459103584,base_link,0.017863997002752718,0.0005180022263006042,-0.7227908218088601,-0.6908357526891987,1.0,0.0,0.0,0.0,1.0,0.0,0.0,0.0,1.0,-0.2515425384044647,0.01434638537466526,0.0012423119042068703,1.2184696791468346e-07,0.0,0.0,0.0,1.2184696791468346e-07,0.0,0.0,0.0,1.2184696791468346e-07,-0.55897905,0.2059396500000012,9.7478101,8.999999999999999e-08,0.0,0.0,0.0,8.999999999999999e-08,0.0,0.0,0.0,8.999999999999999e-08
1538769422.8547053,1155,1538769422,854147936,base_link,0.04976900562067408,0.024222563578717677,-0.7273373095160861,-0.684044407680602,1.0,0.0,0.0,0.0,1.0,0.0,0.0,0.0,1.0,-0.18187442421913147,0.04060850664973259,0.022613141685724255,1.2184696791468346e-07,0.0,0.0,0.0,1.2184696791468346e-07,0.0,0.0,0.0,1.2184696791468346e-07,-0.61781895,0.5393657500000011,9.0809579,8.999999999999999e-08,0.0,0.0,0.0,8.999999999999999e-08,0.0,0.0,0.0,8.999999999999999e-08
1538769423.2208812,1156,1538769423,220375968,base_link,0.1477398660986596,0.11627530361084247,-0.7271956392308475,-0.6601814053871824,1.0,0.0,0.0,0.0,1.0,0.0,0.0,0.0,1.0,-0.7926157116889954,0.05115560069680215,0.08816224336624146,1.2184696791468346e-07,0.0,0.0,0.0,1.2184696791468346e-07,0.0,0.0,0.0,1.2184696791468346e-07,-0.67665885,0.42168595000000114,8.9828914,8.999999999999999e-08,0.0,0.0,0.0,8.999999999999999e-08,0.0,0.0,0.0,8.999999999999999e-08
1538769423.5012085,1157,1538769423,500715008,base_link,0.2041923400685971,0.17235250279165926,-0.7251752278877016,-0.6346030191362011,1.0,0.0,0.0,0.0,1.0,0.0,0.0,0.0,1.0,-0.44140124320983887,-0.02351912669837473,0.1458563655614853,1.2184696791468346e-07,0.0,0.0,0.0,1.2184696791468346e-07,0.0,0.0,0.0,1.2184696791468346e-07,-0.7060788,0.009806650000001018,8.32584585,8.999999999999999e-08,0.0,0.0,0.0,8.999999999999999e-08,0.0,0.0,0.0,8.999999999999999e-08
1538769423.9930146,1158,1538769423,992284480,base_link,0.23781167750352958,0.22892662928088212,-0.7607539928569778,-0.5588305349577959,1.0,0.0,0.0,0.0,1.0,0.0,0.0,0.0,1.0,-0.2792748808860779,-0.18792077898979181,0.38877537846565247,1.2184696791468346e-07,0.0,0.0,0.0,1.2184696791468346e-07,0.0,0.0,0.0,1.2184696791468346e-07,-0.40207265000000003,0.009806650000001261,10.2969825,8.999999999999999e-08,0.0,0.0,0.0,8.999999999999999e-08,0.0,0.0,0.0,8.999999999999999e-08
1538769424.4080286,1159,1538769424,407415008,base_link,0.23834427031546698,0.2701303154101425,-0.8012429728771218,-0.4777356171767354,1.0,0.0,0.0,0.0,1.0,0.0,0.0,0.0,1.0,-0.20337729156017303,-0.2767446637153625,0.30931070446968084,1.2184696791468346e-07,0.0,0.0,0.0,1.2184696791468346e-07,0.0,0.0,0.0,1.2184696791468346e-07,-0.1176798,0.2941995000000015,12.26811915,8.999999999999999e-08,0.0,0.0,0.0,8.999999999999999e-08,0.0,0.0,0.0,8.999999999999999e-08
1538769424.7735994,1160,1538769424,773366464,base_link,0.2105931663241327,0.2985775019338602,-0.8378020392596768,-0.40569660665186635,1.0,0.0,0.0,0.0,1.0,0.0,0.0,0.0,1.0,-0.05152156949043274,-0.3877065479755401,0.3208037912845612,1.2184696791468346e-07,0.0,0.0,0.0,1.2184696791468346e-07,0.0,0.0,0.0,1.2184696791468346e-07,0.0784532,-0.039226599999998286,14.0038962,8.999999999999999e-08,0.0,0.0,0.0,8.999999999999999e-08,0.0,0.0,0.0,8.999999999999999e-08
1538769425.1841495,1161,1538769425,183614016,base_link,0.16783051334271598,0.3396693586480842,-0.8730039772557787,-0.3071183831722083,1.0,0.0,0.0,0.0,1.0,0.0,0.0,0.0,1.0,-0.09060999006032944,-0.41944566369056696,0.387438714504242,1.2184696791468346e-07,0.0,0.0,0.0,1.2184696791468346e-07,0.0,0.0,0.0,1.2184696791468346e-07,0.38245935,0.0392266000000019,15.5337336,8.999999999999999e-08,0.0,0.0,0.0,8.999999999999999e-08,0.0,0.0,0.0,8.999999999999999e-08
1538769425.7575877,1162,1538769425,752067520,base_link,0.09052542624914332,0.3775632669739859,-0.90821778568701,-0.15617804069755054,1.0,0.0,0.0,0.0,1.0,0.0,0.0,0.0,1.0,0.006501196883618832,-0.4801721274852752,0.32881212234497076,1.2184696791468346e-07,0.0,0.0,0.0,1.2184696791468346e-07,0.0,0.0,0.0,1.2184696791468346e-07,0.9414384,0.3138128000000022,18.4168887,8.999999999999999e-08,0.0,0.0,0.0,8.999999999999999e-08,0.0,0.0,0.0,8.999999999999999e-08
1538769426.1617837,1163,1538769426,161493344,base_link,0.02348758995314443,0.37549935796685285,-0.9246919675748664,-0.05825229941553205,1.0,0.0,0.0,0.0,1.0,0.0,0.0,0.0,1.0,0.29358258843421936,-0.4559501111507415,0.3304924368858338,1.2184696791468346e-07,0.0,0.0,0.0,1.2184696791468346e-07,0.0,0.0,0.0,1.2184696791468346e-07,0.93163175,-0.0392265999999981,15.5141203,8.999999999999999e-08,0.0,0.0,0.0,8.999999999999999e-08,0.0,0.0,0.0,8.999999999999999e-08
1538769426.4739633,1164,1538769426,473636832,base_link,-0.02510108233037547,0.3083654921864228,-0.9505208207655135,0.0281216675487715,1.0,0.0,0.0,0.0,1.0,0.0,0.0,0.0,1.0,0.5519621968269348,-0.34733146429061884,0.35930743813514715,1.2184696791468346e-07,0.0,0.0,0.0,1.2184696791468346e-07,0.0,0.0,0.0,1.2184696791468346e-07,0.6864655,0.42168595000000186,15.4552804,8.999999999999999e-08,0.0,0.0,0.0,8.999999999999999e-08,0.0,0.0,0.0,8.999999999999999e-08
1538769426.9224198,1165,1538769426,922144608,base_link,-0.0635179249359239,0.17153524574053336,-0.9780819774738168,0.0994825513418169,1.0,0.0,0.0,0.0,1.0,0.0,0.0,0.0,1.0,0.8567487597465515,-0.18432815372943875,0.17633557319641116,1.2184696791468346e-07,0.0,0.0,0.0,1.2184696791468346e-07,0.0,0.0,0.0,1.2184696791468346e-07,0.2941995,-0.019613299999998085,15.6318001,8.999999999999999e-08,0.0,0.0,0.0,8.999999999999999e-08,0.0,0.0,0.0,8.999999999999999e-08
1538769427.383121,1166,1538769427,381812320,base_link,-0.05946836456539721,-0.008311276495954955,-0.9863943365635292,0.15303806420077265,1.0,0.0,0.0,0.0,1.0,0.0,0.0,0.0,1.0,0.6394311785697937,0.021287195384502414,0.0279293842613697,1.2184696791468346e-07,0.0,0.0,0.0,1.2184696791468346e-07,0.0,0.0,0.0,1.2184696791468346e-07,-0.1765197,0.8531785500000013,10.3754357,8.999999999999999e-08,0.0,0.0,0.0,8.999999999999999e-08,0.0,0.0,0.0,8.999999999999999e-08
1538769427.7302597,1167,1538769427,729873248,base_link,-0.04272739576659706,-0.09052261892745758,-0.9840855018164171,0.1468187666078477,1.0,0.0,0.0,0.0,1.0,0.0,0.0,0.0,1.0,0.37450727820396423,-0.009711876511573797,-0.04195106029510498,1.2184696791468346e-07,0.0,0.0,0.0,1.2184696791468346e-07,0.0,0.0,0.0,1.2184696791468346e-07,-0.2353596,0.13729310000000114,9.20844435,8.999999999999999e-08,0.0,0.0,0.0,8.999999999999999e-08,0.0,0.0,0.0,8.999999999999999e-08
1538769428.3614624,1168,1538769428,361133056,base_link,-0.01866211990754891,-0.1071751426201542,-0.984064939633194,0.1406463958643236,1.0,0.0,0.0,0.0,1.0,0.0,0.0,0.0,1.0,-0.055991895496845245,0.11347935348749158,-0.1891105026006699,1.2184696791468346e-07,0.0,0.0,0.0,1.2184696791468346e-07,0.0,0.0,0.0,1.2184696791468346e-07,-0.2745862,0.637432250000001,8.4729456,8.999999999999999e-08,0.0,0.0,0.0,8.999999999999999e-08,0.0,0.0,0.0,8.999999999999999e-08
1538769428.6625407,1169,1538769428,662272384,base_link,-0.00028303927176151597,-0.1024026584075685,-0.9878972561671528,0.11650161671515191,1.0,0.0,0.0,0.0,1.0,0.0,0.0,0.0,1.0,-0.002134832553565502,0.09910761564970015,-0.10133586078882219,1.2184696791468346e-07,0.0,0.0,0.0,1.2184696791468346e-07,0.0,0.0,0.0,1.2184696791468346e-07,-0.2353596,0.17651970000000095,7.7668668,8.999999999999999e-08,0.0,0.0,0.0,8.999999999999999e-08,0.0,0.0,0.0,8.999999999999999e-08
1538769428.9789972,1170,1538769428,977008896,base_link,0.00847655371981945,-0.0763714798319485,-0.990727679848622,0.11204556879716177,1.0,0.0,0.0,0.0,1.0,0.0,0.0,0.0,1.0,0.8098267316818237,0.07647007703781127,-0.11622134596109392,1.2184696791468346e-07,0.0,0.0,0.0,1.2184696791468346e-07,0.0,0.0,0.0,1.2184696791468346e-07,-0.26477955,0.147099750000001,8.2768126,8.999999999999999e-08,0.0,0.0,0.0,8.999999999999999e-08,0.0,0.0,0.0,8.999999999999999e-08
1538769429.3123858,1171,1538769429,312065088,base_link,0.03559438857877065,-0.219768876452272,-0.9705981729809474,0.09150883591575508,1.0,0.0,0.0,0.0,1.0,0.0,0.0,0.0,1.0,0.7206064462661743,0.001512094167992463,-0.07726699858903885,1.2184696791468346e-07,0.0,0.0,0.0,1.2184696791468346e-07,0.0,0.0,0.0,1.2184696791468346e-07,-0.2745862,0.22555295000000108,8.7671451,8.999999999999999e-08,0.0,0.0,0.0,8.999999999999999e-08,0.0,0.0,0.0,8.999999999999999e-08
1538769429.7055542,1172,1538769429,705172000,base_link,0.038931271776520136,-0.2968165546054747,-0.9521579858962524,0.061477303811975074,1.0,0.0,0.0,0.0,1.0,0.0,0.0,0.0,1.0,0.18328537046909332,-0.08714448660612109,-0.2156783789396286,1.2184696791468346e-07,0.0,0.0,0.0,1.2184696791468346e-07,0.0,0.0,0.0,1.2184696791468346e-07,-0.0980665,1.0395049000000012,9.30651085,8.999999999999999e-08,0.0,0.0,0.0,8.999999999999999e-08,0.0,0.0,0.0,8.999999999999999e-08
1538769430.1979861,1173,1538769430,197677248,base_link,0.027173886489325037,-0.3420949522286966,-0.9387675905027036,-0.03079017009467928,1.0,0.0,0.0,0.0,1.0,0.0,0.0,0.0,1.0,0.13137750327587128,-0.24315287172794345,-0.3000573813915252,1.2184696791468346e-07,0.0,0.0,0.0,1.2184696791468346e-07,0.0,0.0,0.0,1.2184696791468346e-07,0.2549729,0.6570455500000014,11.434553900000001,8.999999999999999e-08,0.0,0.0,0.0,8.999999999999999e-08,0.0,0.0,0.0,8.999999999999999e-08
1538769430.4764614,1174,1538769430,476042176,base_link,0.004338989873777708,-0.34849910905754605,-0.933586446780114,-0.08334200946373267,1.0,0.0,0.0,0.0,1.0,0.0,0.0,0.0,1.0,0.06727989763021469,-0.3004203140735627,-0.32189983129501337,1.2184696791468346e-07,0.0,0.0,0.0,1.2184696791468346e-07,0.0,0.0,0.0,1.2184696791468346e-07,0.5687857000000001,0.8335652500000017,13.32723735,8.999999999999999e-08,0.0,0.0,0.0,8.999999999999999e-08,0.0,0.0,0.0,8.999999999999999e-08
1538769430.814943,1175,1538769430,814750080,base_link,-0.0267693452351472,-0.34836070335384656,-0.9246934343820588,-0.15122921320038535,1.0,0.0,0.0,0.0,1.0,0.0,0.0,0.0,1.0,0.008429322391748428,-0.347052276134491,-0.30369737744331354,1.2184696791468346e-07,0.0,0.0,0.0,1.2184696791468346e-07,0.0,0.0,0.0,1.2184696791468346e-07,0.7256921000000001,0.7453054000000017,13.856796450000001,8.999999999999999e-08,0.0,0.0,0.0,8.999999999999999e-08,0.0,0.0,0.0,8.999999999999999e-08
1538769431.2016351,1176,1538769431,199964704,base_link,-0.0729388906002902,-0.3546895792109905,-0.9050416515138757,-0.22310273342602838,1.0,0.0,0.0,0.0,1.0,0.0,0.0,0.0,1.0,0.10272111743688583,-0.3630692660808564,-0.29931294918060297,1.2184696791468346e-07,0.0,0.0,0.0,1.2184696791468346e-07,0.0,0.0,0.0,1.2184696791468346e-07,1.04931155,1.137571400000002,15.03359445,8.999999999999999e-08,0.0,0.0,0.0,8.999999999999999e-08,0.0,0.0,0.0,8.999999999999999e-08
1538769431.660808,1177,1538769431,660539104,base_link,-0.12109256812294089,-0.3450668849276877,-0.8705517057582419,-0.329249392517447,1.0,0.0,0.0,0.0,1.0,0.0,0.0,0.0,1.0,0.016195595264434814,-0.3686180710792542,-0.32111349701881403,1.2184696791468346e-07,0.0,0.0,0.0,1.2184696791468346e-07,0.0,0.0,0.0,1.2184696791468346e-07,1.06892485,0.5393657500000019,14.85707475,8.999999999999999e-08,0.0,0.0,0.0,8.999999999999999e-08,0.0,0.0,0.0,8.999999999999999e-08
1538769432.0615652,1178,1538769432,60776256,base_link,-0.16713834722020157,-0.3289097238550556,-0.8353483757473155,-0.4075245484365474,1.0,0.0,0.0,0.0,1.0,0.0,0.0,0.0,1.0,-0.03177907317876816,-0.38181540369987493,-0.2649419009685516,1.2184696791468346e-07,0.0,0.0,0.0,1.2184696791468346e-07,0.0,0.0,0.0,1.2184696791468346e-07,1.08853815,0.8825985000000018,14.6707484,8.999999999999999e-08,0.0,0.0,0.0,8.999999999999999e-08,0.0,0.0,0.0,8.999999999999999e-08
1538769432.4541001,1179,1538769432,453757216,base_link,-0.21285525336856959,-0.3045066560754812,-0.7960216098783931,-0.47782625935139,1.0,0.0,0.0,0.0,1.0,0.0,0.0,0.0,1.0,-0.05671750009059906,-0.3794026672840119,-0.29458805918693537,1.2184696791468346e-07,0.0,0.0,0.0,1.2184696791468346e-07,0.0,0.0,0.0,1.2184696791468346e-07,1.02969825,1.0493115500000019,14.9257213,8.999999999999999e-08,0.0,0.0,0.0,8.999999999999999e-08,0.0,0.0,0.0,8.999999999999999e-08
1538769432.7963943,1180,1538769432,793258720,base_link,-0.24135972214900206,-0.2876204043298466,-0.7561429671064298,-0.5359736941611744,1.0,0.0,0.0,0.0,1.0,0.0,0.0,0.0,1.0,0.023311594501137733,-0.3302341997623444,-0.29788982868194575,1.2184696791468346e-07,0.0,0.0,0.0,1.2184696791468346e-07,0.0,0.0,0.0,1.2184696791468346e-07,0.93163175,0.9218251000000018,14.2588691,8.999999999999999e-08,0.0,0.0,0.0,8.999999999999999e-08,0.0,0.0,0.0,8.999999999999999e-08
1538769433.2748318,1181,1538769433,274540832,base_link,-0.2756704012786075,-0.2596882744781135,-0.6916070735906795,-0.615018280798878,1.0,0.0,0.0,0.0,1.0,0.0,0.0,0.0,1.0,-0.0464513823390007,-0.260798454284668,-0.348612368106842,1.2184696791468346e-07,0.0,0.0,0.0,1.2184696791468346e-07,0.0,0.0,0.0,1.2184696791468346e-07,0.7256921000000001,1.2258312500000017,14.1019627,8.999999999999999e-08,0.0,0.0,0.0,8.999999999999999e-08,0.0,0.0,0.0,8.999999999999999e-08
1538769433.712049,1182,1538769433,711769728,base_link,-0.2883209962074916,-0.24046227615991883,-0.6261177161510161,-0.6833926414673678,1.0,0.0,0.0,0.0,1.0,0.0,0.0,0.0,1.0,-0.09415487200021744,-0.24263796210289004,-0.3266866505146026,1.2184696791468346e-07,0.0,0.0,0.0,1.2184696791468346e-07,0.0,0.0,0.0,1.2184696791468346e-07,0.36284605000000003,0.9806650000000012,10.67944185,8.999999999999999e-08,0.0,0.0,0.0,8.999999999999999e-08,0.0,0.0,0.0,8.999999999999999e-08
1538769434.0441983,1183,1538769434,43311808,base_link,-0.29448292784445956,-0.22424181053409156,-0.5803462988061348,-0.725392024410641,1.0,0.0,0.0,0.0,1.0,0.0,0.0,0.0,1.0,-0.07387904822826385,-0.25344192981719976,-0.3161859810352325,1.2184696791468346e-07,0.0,0.0,0.0,1.2184696791468346e-07,0.0,0.0,0.0,1.2184696791468346e-07,0.2941995,0.8825985000000014,11.77778665,8.999999999999999e-08,0.0,0.0,0.0,8.999999999999999e-08,0.0,0.0,0.0,8.999999999999999e-08
1538769434.3378873,1184,1538769434,335623968,base_link,-0.30441979140963077,-0.21034685364253938,-0.5271841767204559,-0.764957276961515,1.0,0.0,0.0,0.0,1.0,0.0,0.0,0.0,1.0,0.024984680116176605,-0.25661799311637884,-0.3278690576553344,1.2184696791468346e-07,0.0,0.0,0.0,1.2184696791468346e-07,0.0,0.0,0.0,1.2184696791468346e-07,0.14709975,0.6570455500000014,11.346294050000001,8.999999999999999e-08,0.0,0.0,0.0,8.999999999999999e-08,0.0,0.0,0.0,8.999999999999999e-08
1538769434.7834258,1185,1538769434,783115264,base_link,-0.3265692140411924,-0.18743130286469853,-0.45710200319197547,-0.8057790105387722,1.0,0.0,0.0,0.0,1.0,0.0,0.0,0.0,1.0,0.03802378848195076,-0.26770046353340154,-0.2817466855049133,1.2184696791468346e-07,0.0,0.0,0.0,1.2184696791468346e-07,0.0,0.0,0.0,1.2184696791468346e-07,0.1569064,0.8433719000000015,12.20927925,8.999999999999999e-08,0.0,0.0,0.0,8.999999999999999e-08,0.0,0.0,0.0,8.999999999999999e-08
1538769435.1381621,1186,1538769435,137838816,base_link,-0.34013809030955305,-0.17151258994938454,-0.3926216113681508,-0.837100819075039,1.0,0.0,0.0,0.0,1.0,0.0,0.0,0.0,1.0,0.07677147537469864,-0.2558757960796357,-0.38164600729942316,1.2184696791468346e-07,0.0,0.0,0.0,1.2184696791468346e-07,0.0,0.0,0.0,1.2184696791468346e-07,0.1569064,0.9904716500000014,11.24822755,8.999999999999999e-08,0.0,0.0,0.0,8.999999999999999e-08,0.0,0.0,0.0,8.999999999999999e-08
1538769435.6268654,1187,1538769435,626178752,base_link,-0.35911182780793854,-0.14587676072757308,-0.29125933611854743,-0.8746008603539417,1.0,0.0,0.0,0.0,1.0,0.0,0.0,0.0,1.0,-0.06355732679367065,-0.32142060995101934,-0.36881092190742487,1.2184696791468346e-07,0.0,0.0,0.0,1.2184696791468346e-07,0.0,0.0,0.0,1.2184696791468346e-07,0.24516625,0.9806650000000015,11.8268199,8.999999999999999e-08,0.0,0.0,0.0,8.999999999999999e-08,0.0,0.0,0.0,8.999999999999999e-08
1538769435.9675112,1188,1538769435,967141152,base_link,-0.37388036761107896,-0.11633937808758728,-0.2077956732045157,-0.8963813797813294,1.0,0.0,0.0,0.0,1.0,0.0,0.0,0.0,1.0,-0.06823592633008957,-0.3774900138378144,-0.3104220330715179,1.2184696791468346e-07,0.0,0.0,0.0,1.2184696791468346e-07,0.0,0.0,0.0,1.2184696791468346e-07,0.4118793,0.7256921000000017,13.2193642,8.999999999999999e-08,0.0,0.0,0.0,8.999999999999999e-08,0.0,0.0,0.0,8.999999999999999e-08
1538769436.44037,1189,1538769436,438026848,base_link,-0.3703563448549965,-0.06349733286587342,-0.11175342002060445,-0.9199540421446419,1.0,0.0,0.0,0.0,1.0,0.0,0.0,0.0,1.0,-0.02935197576880455,-0.3640717267990113,-0.3925212621688842,1.2184696791468346e-07,0.0,0.0,0.0,1.2184696791468346e-07,0.0,0.0,0.0,1.2184696791468346e-07,0.5491724,0.9806650000000018,14.40596885,8.999999999999999e-08,0.0,0.0,0.0,8.999999999999999e-08,0.0,0.0,0.0,8.999999999999999e-08
1538769436.8665595,1190,1538769436,865033920,base_link,-0.3698499484652139,-0.016310582366113685,-0.0071774296257965395,-0.9289205913462806,1.0,0.0,0.0,0.0,1.0,0.0,0.0,0.0,1.0,-0.11996528506278992,-0.3991361558437348,-0.268225610256195,1.2184696791468346e-07,0.0,0.0,0.0,1.2184696791468346e-07,0.0,0.0,0.0,1.2184696791468346e-07,0.46091255,0.7943386500000018,14.709975,8.999999999999999e-08,0.0,0.0,0.0,8.999999999999999e-08,0.0,0.0,0.0,8.999999999999999e-08
1538769437.268824,1191,1538769437,268607200,base_link,-0.35032734661005605,0.02798479868943723,0.07865681055262652,-0.9328990874757878,1.0,0.0,0.0,0.0,1.0,0.0,0.0,0.0,1.0,-0.18474081158638,-0.35114741325378424,-0.3893857300281524,1.2184696791468346e-07,0.0,0.0,0.0,1.2184696791468346e-07,0.0,0.0,0.0,1.2184696791468346e-07,0.51975245,0.9512450500000017,14.121576000000001,8.999999999999999e-08,0.0,0.0,0.0,8.999999999999999e-08,0.0,0.0,0.0,8.999999999999999e-08
1538769437.7235084,1192,1538769437,723109696,base_link,-0.317398439987401,0.06721125129153636,0.17634123307810717,-0.9293248342263769,1.0,0.0,0.0,0.0,1.0,0.0,0.0,0.0,1.0,-0.12632238864898682,-0.3538696765899659,-0.24090388417243952,1.2184696791468346e-07,0.0,0.0,0.0,1.2184696791468346e-07,0.0,0.0,0.0,1.2184696791468346e-07,0.42168595,0.4903325000000017,14.4353888,8.999999999999999e-08,0.0,0.0,0.0,8.999999999999999e-08,0.0,0.0,0.0,8.999999999999999e-08
1538769438.107191,1193,1538769438,105442880,base_link,-0.3094653904244058,0.09794266666584964,0.24248714773016156,-0.9142419752787241,1.0,0.0,0.0,0.0,1.0,0.0,0.0,0.0,1.0,0.085588738322258,-0.2726555168628693,-0.30963397026062006,1.2184696791468346e-07,0.0,0.0,0.0,1.2184696791468346e-07,0.0,0.0,0.0,1.2184696791468346e-07,0.08825985,0.6080123000000016,13.28801075,8.999999999999999e-08,0.0,0.0,0.0,8.999999999999999e-08,0.0,0.0,0.0,8.999999999999999e-08
1538769438.4219875,1194,1538769438,421435744,base_link,-0.3287333353354129,0.12791137553098475,0.2892561652300312,-0.8898898499957414,1.0,0.0,0.0,0.0,1.0,0.0,0.0,0.0,1.0,0.19766727089881897,-0.27062845230102545,-0.260153979063034,1.2184696791468346e-07,0.0,0.0,0.0,1.2184696791468346e-07,0.0,0.0,0.0,1.2184696791468346e-07,0.0392266,0.44129925000000153,12.2975391,8.999999999999999e-08,0.0,0.0,0.0,8.999999999999999e-08,0.0,0.0,0.0,8.999999999999999e-08
1538769438.7568798,1195,1538769438,756569856,base_link,-0.3368038516298091,0.16197202439643646,0.33881525664066625,-0.8634422104042432,1.0,0.0,0.0,0.0,1.0,0.0,0.0,0.0,1.0,-0.012981503270566463,-0.2568828463554383,-0.29409477114677424,1.2184696791468346e-07,0.0,0.0,0.0,1.2184696791468346e-07,0.0,0.0,0.0,1.2184696791468346e-07,0.26477955,1.1277647500000016,13.01342455,8.999999999999999e-08,0.0,0.0,0.0,8.999999999999999e-08,0.0,0.0,0.0,8.999999999999999e-08
1538769439.023815,1196,1538769439,23149600,base_link,-0.3313945093149498,0.1724295397907292,0.38855091880392534,-0.8423027463448557,1.0,0.0,0.0,0.0,1.0,0.0,0.0,0.0,1.0,-0.052855465561151505,-0.25619193911552435,-0.3608964383602142,1.2184696791468346e-07,0.0,0.0,0.0,1.2184696791468346e-07,0.0,0.0,0.0,1.2184696791468346e-07,0.24516625,0.7943386500000016,12.28773245,8.999999999999999e-08,0.0,0.0,0.0,8.999999999999999e-08,0.0,0.0,0.0,8.999999999999999e-08
1538769439.3730552,1197,1538769439,372731712,base_link,-0.20380632261158915,0.13237519156628644,0.4622762090885239,-0.8527839691458048,1.0,0.0,0.0,0.0,1.0,0.0,0.0,0.0,1.0,-1.1755070686340332,-0.1625470817089081,-0.20223256945610044,1.2184696791468346e-07,0.0,0.0,0.0,1.2184696791468346e-07,0.0,0.0,0.0,1.2184696791468346e-07,0.28439285000000003,0.7060788000000016,12.69961175,8.999999999999999e-08,0.0,0.0,0.0,8.999999999999999e-08,0.0,0.0,0.0,8.999999999999999e-08
1538769439.9761593,1198,1538769439,975774528,base_link,0.030975220486511818,0.009307252921227784,0.5119420038317559,-0.8584109129499687,1.0,0.0,0.0,0.0,1.0,0.0,0.0,0.0,1.0,-0.5915858149528503,0.012467967346310607,-0.06789633631706238,1.2184696791468346e-07,0.0,0.0,0.0,1.2184696791468346e-07,0.0,0.0,0.0,1.2184696791468346e-07,-0.22555295,0.42168595000000125,10.44408225,8.999999999999999e-08,0.0,0.0,0.0,8.999999999999999e-08,0.0,0.0,0.0,8.999999999999999e-08
1538769440.3728254,1199,1538769440,372525280,base_link,0.09788726144508096,-0.034423436951275935,0.5102749596438914,-0.8537286317066268,1.0,0.0,0.0,0.0,1.0,0.0,0.0,0.0,1.0,-0.2299795299768448,-0.021236317232251153,0.09995899349451065,1.2184696791468346e-07,0.0,0.0,0.0,1.2184696791468346e-07,0.0,0.0,0.0,1.2184696791468346e-07,-0.2157463,0.1274864500000012,9.71839015,8.999999999999999e-08,0.0,0.0,0.0,8.999999999999999e-08,0.0,0.0,0.0,8.999999999999999e-08
1538769440.861158,1200,1538769440,860787680,base_link,0.13520425942793848,-0.06016793143980535,0.47547530233412016,-0.8671925190689058,1.0,0.0,0.0,0.0,1.0,0.0,0.0,0.0,1.0,-0.13318265974521637,0.013491552323102968,0.14733120799064636,1.2184696791468346e-07,0.0,0.0,0.0,1.2184696791468346e-07,0.0,0.0,0.0,1.2184696791468346e-07,-0.10787315,0.2451662500000011,9.16921775,8.999999999999999e-08,0.0,0.0,0.0,8.999999999999999e-08,0.0,0.0,0.0,8.999999999999999e-08
1538769441.2169323,1201,1538769441,216497312,base_link,0.1269905329460742,-0.06320088952984415,0.4511706468319012,-0.8810925601445015,1.0,0.0,0.0,0.0,1.0,0.0,0.0,0.0,1.0,0.1623382717370987,0.015146114863455318,0.18030844628810883,1.2184696791468346e-07,0.0,0.0,0.0,1.2184696791468346e-07,0.0,0.0,0.0,1.2184696791468346e-07,-0.2157463,0.2059396500000011,8.9828914,8.999999999999999e-08,0.0,0.0,0.0,8.999999999999999e-08,0.0,0.0,0.0,8.999999999999999e-08
1538769441.6786878,1202,1538769441,678136448,base_link,0.09281337664109839,-0.05506412171679557,0.4189672004331416,-0.9015653634525069,1.0,0.0,0.0,0.0,1.0,0.0,0.0,0.0,1.0,0.19210462272167206,0.009982750751078148,0.15834161639213562,1.2184696791468346e-07,0.0,0.0,0.0,1.2184696791468346e-07,0.0,0.0,0.0,1.2184696791468346e-07,-0.14709975,0.41187930000000117,9.56148375,8.999999999999999e-08,0.0,0.0,0.0,8.999999999999999e-08,0.0,0.0,0.0,8.999999999999999e-08
1538769441.987887,1203,1538769441,987412256,base_link,0.061180416589264486,-0.045307528648164376,0.4062808017540617,-0.910571301216899,1.0,0.0,0.0,0.0,1.0,0.0,0.0,0.0,1.0,0.2832229733467102,0.023021992295980464,0.07872756570577621,1.2184696791468346e-07,0.0,0.0,0.0,1.2184696791468346e-07,0.0,0.0,0.0,1.2184696791468346e-07,-0.2745862,0.1667130500000012,9.551677100000001,8.999999999999999e-08,0.0,0.0,0.0,8.999999999999999e-08,0.0,0.0,0.0,8.999999999999999e-08
1538769442.4971402,1204,1538769442,494374464,base_link,0.01065321956581055,-0.029830023386701553,0.3826731154907874,-0.9233406550662686,1.0,0.0,0.0,0.0,1.0,0.0,0.0,0.0,1.0,0.14580130577087402,0.021048262715339664,0.041689708828926086,1.2184696791468346e-07,0.0,0.0,0.0,1.2184696791468346e-07,0.0,0.0,0.0,1.2184696791468346e-07,-0.1765197,0.4805258500000012,9.56148375,8.999999999999999e-08,0.0,0.0,0.0,8.999999999999999e-08,0.0,0.0,0.0,8.999999999999999e-08
1538769442.8719978,1205,1538769442,871658592,base_link,-0.013221143464291232,-0.023164010314826792,0.3829967573678496,-0.9233645617183623,1.0,0.0,0.0,0.0,1.0,0.0,0.0,0.0,1.0,0.10035226494073868,0.017850073054432865,-0.024899389594793323,1.2184696791468346e-07,0.0,0.0,0.0,1.2184696791468346e-07,0.0,0.0,0.0,1.2184696791468346e-07,-0.12748645,0.5001391500000012,9.91452315,8.999999999999999e-08,0.0,0.0,0.0,8.999999999999999e-08,0.0,0.0,0.0,8.999999999999999e-08
1538769443.130947,1206,1538769443,130457696,base_link,-0.02807707774443837,-0.018600667278868777,0.38668372444770255,-0.9215971951614039,1.0,0.0,0.0,0.0,1.0,0.0,0.0,0.0,1.0,0.14854075014591217,-0.004366573411971331,-0.003145300550386309,1.2184696791468346e-07,0.0,0.0,0.0,1.2184696791468346e-07,0.0,0.0,0.0,1.2184696791468346e-07,-0.06864655,0.25497290000000117,9.34573745,8.999999999999999e-08,0.0,0.0,0.0,8.999999999999999e-08,0.0,0.0,0.0,8.999999999999999e-08
1538769443.6867454,1207,1538769443,683601248,base_link,-0.04311540070124767,-0.00033610273547967035,0.37716206221198,-0.9251430851956517,1.0,0.0,0.0,0.0,1.0,0.0,0.0,0.0,1.0,-0.010852217674255371,-0.04683158174157143,-0.04194928333163261,1.2184696791468346e-07,0.0,0.0,0.0,1.2184696791468346e-07,0.0,0.0,0.0,1.2184696791468346e-07,-0.0196133,0.7649187000000014,11.81701325,8.999999999999999e-08,0.0,0.0,0.0,8.999999999999999e-08,0.0,0.0,0.0,8.999999999999999e-08
1538769444.1053069,1208,1538769444,104778432,base_link,-0.03842441285833868,0.003535001794135667,0.3906616666980112,-0.9197252472513405,1.0,0.0,0.0,0.0,1.0,0.0,0.0,0.0,1.0,0.11021432280540466,-0.024342186748981483,-0.06951142102479935,1.2184696791468346e-07,0.0,0.0,0.0,1.2184696791468346e-07,0.0,0.0,0.0,1.2184696791468346e-07,-0.1176798,0.36284605000000125,10.1596894,8.999999999999999e-08,0.0,0.0,0.0,8.999999999999999e-08,0.0,0.0,0.0,8.999999999999999e-08
1538769444.5360484,1209,1538769444,535143616,base_link,-0.035997526441306056,0.012783088334843014,0.39619894220299645,-0.9173697013418078,1.0,0.0,0.0,0.0,1.0,0.0,0.0,0.0,1.0,-0.03305421769618988,-0.04071161150932312,0.009227814152836805,1.2184696791468346e-07,0.0,0.0,0.0,1.2184696791468346e-07,0.0,0.0,0.0,1.2184696791468346e-07,0.02941995,0.19613300000000133,10.8461549,8.999999999999999e-08,0.0,0.0,0.0,8.999999999999999e-08,0.0,0.0,0.0,8.999999999999999e-08
1538769444.8822093,1210,1538769444,881738688,base_link,-0.020484599397077738,0.008770078335689074,0.3904270636926547,-0.9203641533924813,1.0,0.0,0.0,0.0,1.0,0.0,0.0,0.0,1.0,-0.10163437575101852,-0.004019599407911299,0.014605242758989334,1.2184696791468346e-07,0.0,0.0,0.0,1.2184696791468346e-07,0.0,0.0,0.0,1.2184696791468346e-07,0.0392266,0.4511059000000013,9.97336305,8.999999999999999e-08,0.0,0.0,0.0,8.999999999999999e-08,0.0,0.0,0.0,8.999999999999999e-08
1538769445.3755631,1211,1538769445,374990912,base_link,-0.012905074413626963,0.004628269194118881,0.39123431807630493,-0.9201889732756061,1.0,0.0,0.0,0.0,1.0,0.0,0.0,0.0,1.0,-0.009217025712132454,0.009022420272231104,0.02060190960764885,1.2184696791468346e-07,0.0,0.0,0.0,1.2184696791468346e-07,0.0,0.0,0.0,1.2184696791468346e-07,0.0,0.39226600000000117,9.67916355,8.999999999999999e-08,0.0,0.0,0.0,8.999999999999999e-08,0.0,0.0,0.0,8.999999999999999e-08
1538769445.7616336,1212,1538769445,761384992,base_link,-0.02003671488849045,0.007142092511406896,0.38305798973278754,-0.923479343067787,1.0,0.0,0.0,0.0,1.0,0.0,0.0,0.0,1.0,0.11624336242675781,-0.0025737653486430576,0.055342450737953186,1.2184696791468346e-07,0.0,0.0,0.0,1.2184696791468346e-07,0.0,0.0,0.0,1.2184696791468346e-07,0.06864655,0.5393657500000013,10.395049,8.999999999999999e-08,0.0,0.0,0.0,8.999999999999999e-08,0.0,0.0,0.0,8.999999999999999e-08
1538769446.1383665,1213,1538769446,137954336,base_link,-0.020604293459776327,0.003824420495472872,0.3793005015922435,-0.9250361973408228,1.0,0.0,0.0,0.0,1.0,0.0,0.0,0.0,1.0,-0.004650400020182133,0.02741839736700057,-0.07488439232110977,1.2184696791468346e-07,0.0,0.0,0.0,1.2184696791468346e-07,0.0,0.0,0.0,1.2184696791468346e-07,0.0784532,0.6668522000000011,8.83579165,8.999999999999999e-08,0.0,0.0,0.0,8.999999999999999e-08,0.0,0.0,0.0,8.999999999999999e-08
1538769446.563094,1214,1538769446,562564672,base_link,-0.01848915290022117,-0.0015751454607721006,0.39066345888258563,-0.9203465282358074,1.0,0.0,0.0,0.0,1.0,0.0,0.0,0.0,1.0,-0.027959980070590973,0.007147799246013163,-0.013865856453776361,1.2184696791468346e-07,0.0,0.0,0.0,1.2184696791468346e-07,0.0,0.0,0.0,1.2184696791468346e-07,0.08825985,0.1667130500000012,9.67916355,8.999999999999999e-08,0.0,0.0,0.0,8.999999999999999e-08,0.0,0.0,0.0,8.999999999999999e-08
1538769446.911585,1215,1538769446,909808256,base_link,-0.021953607846481718,0.0003644002136354271,0.38174847533648665,-0.9240054155107938,1.0,0.0,0.0,0.0,1.0,0.0,0.0,0.0,1.0,-0.018835270777344704,-0.021826587617397298,0.09390096366405487,1.2184696791468346e-07,0.0,0.0,0.0,1.2184696791468346e-07,0.0,0.0,0.0,1.2184696791468346e-07,0.0980665,0.4412992500000013,10.6304086,8.999999999999999e-08,0.0,0.0,0.0,8.999999999999999e-08,0.0,0.0,0.0,8.999999999999999e-08
1538769447.1978428,1216,1538769447,197319360,base_link,-0.013714316505577629,0.0017879360825876957,0.3695463921901957,-0.9291093503062811,1.0,0.0,0.0,0.0,1.0,0.0,0.0,0.0,1.0,-0.05403180047869682,-0.02923904359340667,0.0700894147157669,1.2184696791468346e-07,0.0,0.0,0.0,1.2184696791468346e-07,0.0,0.0,0.0,1.2184696791468346e-07,0.18632635,0.6080123000000013,10.42446895,8.999999999999999e-08,0.0,0.0,0.0,8.999999999999999e-08,0.0,0.0,0.0,8.999999999999999e-08
1538769447.6768062,1217,1538769447,671278240,base_link,-0.015436492305582993,0.007696388136914024,0.3722513984343241,-0.9279716464842209,1.0,0.0,0.0,0.0,1.0,0.0,0.0,0.0,1.0,0.09891225397586823,-0.02769911102950574,-0.07708007842302322,1.2184696791468346e-07,0.0,0.0,0.0,1.2184696791468346e-07,0.0,0.0,0.0,1.2184696791468346e-07,0.1372931,0.3922660000000013,10.4146623,8.999999999999999e-08,0.0,0.0,0.0,8.999999999999999e-08,0.0,0.0,0.0,8.999999999999999e-08
1538769448.0802896,1218,1538769448,79653248,base_link,-0.026804691658243535,0.018548987163581762,0.374094782642673,-0.9268174238650473,1.0,0.0,0.0,0.0,1.0,0.0,0.0,0.0,1.0,0.06680087745189667,-0.038163144141435616,0.03171858191490174,1.2184696791468346e-07,0.0,0.0,0.0,1.2184696791468346e-07,0.0,0.0,0.0,1.2184696791468346e-07,0.2157463,0.3040061500000013,10.52253545,8.999999999999999e-08,0.0,0.0,0.0,8.999999999999999e-08,0.0,0.0,0.0,8.999999999999999e-08
1538769448.5456707,1219,1538769448,544972480,base_link,-0.03508374156644162,0.02641418309510852,0.3668402851377119,-0.9292468064024753,1.0,0.0,0.0,0.0,1.0,0.0,0.0,0.0,1.0,0.0017071282491087914,0.014070921577513213,-0.040396615862846375,1.2184696791468346e-07,0.0,0.0,0.0,1.2184696791468346e-07,0.0,0.0,0.0,1.2184696791468346e-07,0.2157463,0.5197524500000013,10.2773692,8.999999999999999e-08,0.0,0.0,0.0,8.999999999999999e-08,0.0,0.0,0.0,8.999999999999999e-08
1538769448.8737078,1220,1538769448,872750464,base_link,-0.03122113396111963,0.020831487917091215,0.37141959484214454,-0.9277061897350041,1.0,0.0,0.0,0.0,1.0,0.0,0.0,0.0,1.0,-0.043855197727680206,0.03099864348769188,-0.01148578524589539,1.2184696791468346e-07,0.0,0.0,0.0,1.2184696791468346e-07,0.0,0.0,0.0,1.2184696791468346e-07,0.2157463,0.45110590000000117,9.65955025,8.999999999999999e-08,0.0,0.0,0.0,8.999999999999999e-08,0.0,0.0,0.0,8.999999999999999e-08
1538769449.2669463,1221,1538769449,266006976,base_link,-0.035557596216735106,0.015958350905189884,0.37528742936601656,-0.9260887288740327,1.0,0.0,0.0,0.0,1.0,0.0,0.0,0.0,1.0,-0.007949833758175373,0.026076121255755414,-0.07261622697114944,1.2184696791468346e-07,0.0,0.0,0.0,1.2184696791468346e-07,0.0,0.0,0.0,1.2184696791468346e-07,0.196133,0.38245935000000114,9.3751574,8.999999999999999e-08,0.0,0.0,0.0,8.999999999999999e-08,0.0,0.0,0.0,8.999999999999999e-08
1538769449.7512755,1222,1538769449,750231232,base_link,-0.03796397068558198,0.01586914057274878,0.3764052990965743,-0.9255409002952193,1.0,0.0,0.0,0.0,1.0,0.0,0.0,0.0,1.0,-0.026454493403434753,-0.010643187910318376,-0.009461494162678717,1.2184696791468346e-07,0.0,0.0,0.0,1.2184696791468346e-07,0.0,0.0,0.0,1.2184696791468346e-07,0.26477955,0.3824593500000012,9.73800345,8.999999999999999e-08,0.0,0.0,0.0,8.999999999999999e-08,0.0,0.0,0.0,8.999999999999999e-08
1538769450.1537204,1223,1538769450,153434240,base_link,-0.022083298881348877,0.012488940781267535,0.3735932352535154,-0.9272456248705037,1.0,0.0,0.0,0.0,1.0,0.0,0.0,0.0,1.0,-0.3050210475921631,-0.006377088837325572,0.008869645185768604,1.2184696791468346e-07,0.0,0.0,0.0,1.2184696791468346e-07,0.0,0.0,0.0,1.2184696791468346e-07,0.26477955,0.5197524500000011,9.42419065,8.999999999999999e-08,0.0,0.0,0.0,8.999999999999999e-08,0.0,0.0,0.0,8.999999999999999e-08
1538769450.5361776,1224,1538769450,535771328,base_link,0.05801614635143758,-0.01680213285408709,0.37100355748698116,-0.9266650826626017,1.0,0.0,0.0,0.0,1.0,0.0,0.0,0.0,1.0,-0.39706966280937195,-0.029856232926249497,0.043797042220830924,1.2184696791468346e-07,0.0,0.0,0.0,1.2184696791468346e-07,0.0,0.0,0.0,1.2184696791468346e-07,0.2353596,0.46091255000000125,10.24794925,8.999999999999999e-08,0.0,0.0,0.0,8.999999999999999e-08,0.0,0.0,0.0,8.999999999999999e-08
1538769450.9998941,1225,1538769450,999302432,base_link,0.12039528718829319,-0.032258707154968744,0.3461335490557578,-0.9298687632422135,1.0,0.0,0.0,0.0,1.0,0.0,0.0,0.0,1.0,-0.2013952136039734,-0.05770179629325865,0.1389666199684143,1.2184696791468346e-07,0.0,0.0,0.0,1.2184696791468346e-07,0.0,0.0,0.0,1.2184696791468346e-07,0.4118793,0.10787315000000142,11.5326204,8.999999999999999e-08,0.0,0.0,0.0,8.999999999999999e-08,0.0,0.0,0.0,8.999999999999999e-08
1538769451.3820138,1226,1538769451,381641920,base_link,0.1166634918578081,-0.02264935251502366,0.3144119859274891,-0.9418183156019666,1.0,0.0,0.0,0.0,1.0,0.0,0.0,0.0,1.0,0.13005667924880981,-0.057388905435800525,0.22697913646697998,1.2184696791468346e-07,0.0,0.0,0.0,1.2184696791468346e-07,0.0,0.0,0.0,1.2184696791468346e-07,0.46091255,0.27458620000000133,11.0030613,8.999999999999999e-08,0.0,0.0,0.0,8.999999999999999e-08,0.0,0.0,0.0,8.999999999999999e-08
1538769451.714058,1227,1538769451,713481952,base_link,0.08578678185797554,-0.006971619492924613,0.28442540897103047,-0.9548267964985903,1.0,0.0,0.0,0.0,1.0,0.0,0.0,0.0,1.0,0.1989070028066635,-0.058537688106298426,0.16897588968276978,1.2184696791468346e-07,0.0,0.0,0.0,1.2184696791468346e-07,0.0,0.0,0.0,1.2184696791468346e-07,0.4511059,0.23535960000000142,11.77778665,8.999999999999999e-08,0.0,0.0,0.0,8.999999999999999e-08,0.0,0.0,0.0,8.999999999999999e-08
1538769452.1147447,1228,1538769452,114337184,base_link,0.05903083634122098,0.004823326347455222,0.2517610867535234,-0.9659753884444917,1.0,0.0,0.0,0.0,1.0,0.0,0.0,0.0,1.0,0.2247610241174698,0.01940857060253622,0.1305955946445465,1.2184696791468346e-07,0.0,0.0,0.0,1.2184696791468346e-07,0.0,0.0,0.0,1.2184696791468346e-07,0.20593965,0.4314926000000013,10.30678915,8.999999999999999e-08,0.0,0.0,0.0,8.999999999999999e-08,0.0,0.0,0.0,8.999999999999999e-08
1538769452.4530156,1229,1538769452,452683968,base_link,0.015564976729272886,0.012800394348519036,0.23361694085234908,-0.9721198518447864,1.0,0.0,0.0,0.0,1.0,0.0,0.0,0.0,1.0,0.16311928629875183,0.018175158649683013,0.10137487202882767,1.2184696791468346e-07,0.0,0.0,0.0,1.2184696791468346e-07,0.0,0.0,0.0,1.2184696791468346e-07,0.24516625,0.5197524500000013,10.1204628,8.999999999999999e-08,0.0,0.0,0.0,8.999999999999999e-08,0.0,0.0,0.0,8.999999999999999e-08
1538769452.899789,1230,1538769452,899321600,base_link,-0.01768296739499876,0.01543380087552452,0.22697704654681328,-0.973617240395592,1.0,0.0,0.0,0.0,1.0,0.0,0.0,0.0,1.0,0.15120872855186462,0.007777171675115833,0.0789603441953659,1.2184696791468346e-07,0.0,0.0,0.0,1.2184696791468346e-07,0.0,0.0,0.0,1.2184696791468346e-07,0.10787315,0.23535960000000125,10.1204628,8.999999999999999e-08,0.0,0.0,0.0,8.999999999999999e-08,0.0,0.0,0.0,8.999999999999999e-08
1538769453.253485,1231,1538769453,253099008,base_link,-0.029524114451087213,0.014955550142067937,0.2167606349164526,-0.975663612797179,1.0,0.0,0.0,0.0,1.0,0.0,0.0,0.0,1.0,-0.05404353141784668,0.018299717456102378,0.0500401072204113,1.2184696791468346e-07,0.0,0.0,0.0,1.2184696791468346e-07,0.0,0.0,0.0,1.2184696791468346e-07,0.0392266,0.4805258500000012,9.5124505,8.999999999999999e-08,0.0,0.0,0.0,8.999999999999999e-08,0.0,0.0,0.0,8.999999999999999e-08
1538769453.8246121,1232,1538769453,824208352,base_link,-0.0332550623082709,0.0027431024723064885,0.24466170438893264,-0.9690341720626792,1.0,0.0,0.0,0.0,1.0,0.0,0.0,0.0,1.0,0.08603780716657639,0.01901720650494097,-0.1555468887090683,1.2184696791468346e-07,0.0,0.0,0.0,1.2184696791468346e-07,0.0,0.0,0.0,1.2184696791468346e-07,-0.10787315,0.44129925000000086,7.01175475,8.999999999999999e-08,0.0,0.0,0.0,8.999999999999999e-08,0.0,0.0,0.0,8.999999999999999e-08
1538769454.111219,1233,1538769454,110744672,base_link,-0.04842351587834402,0.00695959070592512,0.2501370352811187,-0.966973728075359,1.0,0.0,0.0,0.0,1.0,0.0,0.0,0.0,1.0,0.09351517260074615,7.122196257114951e-05,0.04412727430462837,1.2184696791468346e-07,0.0,0.0,0.0,1.2184696791468346e-07,0.0,0.0,0.0,1.2184696791468346e-07,0.0196133,0.2647795500000013,10.8657682,8.999999999999999e-08,0.0,0.0,0.0,8.999999999999999e-08,0.0,0.0,0.0,8.999999999999999e-08
1538769454.5626442,1234,1538769454,560223584,base_link,-0.04865903777747906,0.0031141557752396424,0.24884493889667825,-0.9673152518501329,1.0,0.0,0.0,0.0,1.0,0.0,0.0,0.0,1.0,0.0971701517701149,0.0073765758424997226,-0.08796074241399765,1.2184696791468346e-07,0.0,0.0,0.0,1.2184696791468346e-07,0.0,0.0,0.0,1.2184696791468346e-07,-0.0980665,0.6668522000000011,9.1201845,8.999999999999999e-08,0.0,0.0,0.0,8.999999999999999e-08,0.0,0.0,0.0,8.999999999999999e-08
1538769454.8317957,1235,1538769454,831317984,base_link,-0.059375099399872164,0.005539438764944836,0.25650585971524215,-0.9647013300090185,1.0,0.0,0.0,0.0,1.0,0.0,0.0,0.0,1.0,0.01534924004226923,0.0052419574931263915,-0.005411269143223763,1.2184696791468346e-07,0.0,0.0,0.0,1.2184696791468346e-07,0.0,0.0,0.0,1.2184696791468346e-07,0.0980665,0.31381280000000134,10.9246081,8.999999999999999e-08,0.0,0.0,0.0,8.999999999999999e-08,0.0,0.0,0.0,8.999999999999999e-08
1538769455.2637362,1236,1538769455,263322400,base_link,-0.05717797756812063,0.002125077762285559,0.2524664532059156,-0.9659124457896527,1.0,0.0,0.0,0.0,1.0,0.0,0.0,0.0,1.0,-0.10872103273868561,-0.003038590773940087,-0.003077102359384298,1.2184696791468346e-07,0.0,0.0,0.0,1.2184696791468346e-07,0.0,0.0,0.0,1.2184696791468346e-07,-0.0588399,0.5197524500000011,9.81645665,8.999999999999999e-08,0.0,0.0,0.0,8.999999999999999e-08,0.0,0.0,0.0,8.999999999999999e-08
1538769455.6537566,1237,1538769455,651715968,base_link,-0.040018574966279793,-0.006028147109007434,0.25700605985931707,-0.9655620437318824,1.0,0.0,0.0,0.0,1.0,0.0,0.0,0.0,1.0,-0.12686263024806976,0.013128096237778657,-0.051648449152708054,1.2184696791468346e-07,0.0,0.0,0.0,1.2184696791468346e-07,0.0,0.0,0.0,1.2184696791468346e-07,-0.04903325,0.5393657500000012,9.7478101,8.999999999999999e-08,0.0,0.0,0.0,8.999999999999999e-08,0.0,0.0,0.0,8.999999999999999e-08
1538769456.0645018,1238,1538769456,64183584,base_link,-0.030190568619335847,-0.007794018418116851,0.26386555462763167,-0.9640553676653595,1.0,0.0,0.0,0.0,1.0,0.0,0.0,0.0,1.0,-0.01001609768718481,-0.00797954760491848,0.004261814057826997,1.2184696791468346e-07,0.0,0.0,0.0,1.2184696791468346e-07,0.0,0.0,0.0,1.2184696791468346e-07,-0.0392266,0.3040061500000012,9.89490985,8.999999999999999e-08,0.0,0.0,0.0,8.999999999999999e-08,0.0,0.0,0.0,8.999999999999999e-08
1538769456.460685,1239,1538769456,460270304,base_link,-0.023870295195661227,-0.006465507935510416,0.260195210823565,-0.9652392752467591,1.0,0.0,0.0,0.0,1.0,0.0,0.0,0.0,1.0,-0.04343961179256439,-0.035118404775857925,0.015277281403541568,1.2184696791468346e-07,0.0,0.0,0.0,1.2184696791468346e-07,0.0,0.0,0.0,1.2184696791468346e-07,0.08825985,0.31381280000000134,10.7284751,8.999999999999999e-08,0.0,0.0,0.0,8.999999999999999e-08,0.0,0.0,0.0,8.999999999999999e-08
1538769456.946967,1240,1538769456,946164352,base_link,-0.016274565850056197,-0.0024369384470054726,0.2498499085287137,-0.9681447324886869,1.0,0.0,0.0,0.0,1.0,0.0,0.0,0.0,1.0,-0.04935796186327934,-0.013319173827767365,0.05369840934872627,1.2184696791468346e-07,0.0,0.0,0.0,1.2184696791468346e-07,0.0,0.0,0.0,1.2184696791468346e-07,-0.02941995,0.4314926000000013,10.0616229,8.999999999999999e-08,0.0,0.0,0.0,8.999999999999999e-08,0.0,0.0,0.0,8.999999999999999e-08
1538769457.3024566,1241,1538769457,301066688,base_link,-0.00747818692427019,-0.0024112629542008346,0.25344313560384374,-0.9673183754827483,1.0,0.0,0.0,0.0,1.0,0.0,0.0,0.0,1.0,-0.006827951408922672,-0.02669066190719605,-0.03213789686560631,1.2184696791468346e-07,0.0,0.0,0.0,1.2184696791468346e-07,0.0,0.0,0.0,1.2184696791468346e-07,-0.04903325,0.4903325000000013,10.4146623,8.999999999999999e-08,0.0,0.0,0.0,8.999999999999999e-08,0.0,0.0,0.0,8.999999999999999e-08
1538769457.592524,1242,1538769457,588402720,base_link,-0.006479778665908139,0.0006717248512612299,0.25287156001046546,-0.9674779250153661,1.0,0.0,0.0,0.0,1.0,0.0,0.0,0.0,1.0,-0.004595206119120121,-0.0215663518756628,0.03544556349515915,1.2184696791468346e-07,0.0,0.0,0.0,1.2184696791468346e-07,0.0,0.0,0.0,1.2184696791468346e-07,-0.0588399,0.42168595000000125,10.1596894,8.999999999999999e-08,0.0,0.0,0.0,8.999999999999999e-08,0.0,0.0,0.0,8.999999999999999e-08
1538769458.0980082,1243,1538769458,97553024,base_link,-0.009356912307188084,0.007028411601570193,0.2486522103143476,-0.9685221360032119,1.0,0.0,0.0,0.0,1.0,0.0,0.0,0.0,1.0,0.10314563661813736,-0.038562826812267297,0.0656706914305687,1.2184696791468346e-07,0.0,0.0,0.0,1.2184696791468346e-07,0.0,0.0,0.0,1.2184696791468346e-07,-0.00980665,0.17651970000000136,11.15016105,8.999999999999999e-08,0.0,0.0,0.0,8.999999999999999e-08,0.0,0.0,0.0,8.999999999999999e-08
1538769458.5292265,1244,1538769458,528955968,base_link,-0.008322190456636992,0.013599768355616585,0.2312444023433829,-0.9727650352636698,1.0,0.0,0.0,0.0,1.0,0.0,0.0,0.0,1.0,0.0031469929963350296,-0.009669224731624118,0.0766553208231926,1.2184696791468346e-07,0.0,0.0,0.0,1.2184696791468346e-07,0.0,0.0,0.0,1.2184696791468346e-07,-0.02941995,0.5785923500000013,10.50292215,8.999999999999999e-08,0.0,0.0,0.0,8.999999999999999e-08,0.0,0.0,0.0,8.999999999999999e-08
1538769458.8881695,1245,1538769458,886857600,base_link,-0.030193526522367863,0.01660978322918083,0.22938210298978567,-0.9727262291545375,1.0,0.0,0.0,0.0,1.0,0.0,0.0,0.0,1.0,0.2140478938817978,0.010949260555207722,-0.05304684489965439,1.2184696791468346e-07,0.0,0.0,0.0,1.2184696791468346e-07,0.0,0.0,0.0,1.2184696791468346e-07,0.02941995,0.4707192000000013,10.2969825,8.999999999999999e-08,0.0,0.0,0.0,8.999999999999999e-08,0.0,0.0,0.0,8.999999999999999e-08
1538769459.2701066,1246,1538769459,268355520,base_link,0.020352245732910917,0.00271392156546385,0.23024949533257366,-0.9729149966068253,1.0,0.0,0.0,0.0,1.0,0.0,0.0,0.0,1.0,-1.1411056518554688,-0.010356608778238283,0.11347398906946182,1.2184696791468346e-07,0.0,0.0,0.0,1.2184696791468346e-07,0.0,0.0,0.0,1.2184696791468346e-07,-0.00980665,0.4314926000000013,10.1596894,8.999999999999999e-08,0.0,0.0,0.0,8.999999999999999e-08,0.0,0.0,0.0,8.999999999999999e-08
1538769459.6296165,1247,1538769459,629317152,base_link,0.2090699348445002,-0.04435709466319346,0.2036119583091519,-0.9554393653867674,1.0,0.0,0.0,0.0,1.0,0.0,0.0,0.0,1.0,-0.7808711528778076,0.0030760765075683746,0.12370682507753372,1.2184696791468346e-07,0.0,0.0,0.0,1.2184696791468346e-07,0.0,0.0,0.0,1.2184696791468346e-07,0.02941995,0.5099458000000012,9.551677100000001,8.999999999999999e-08,0.0,0.0,0.0,8.999999999999999e-08,0.0,0.0,0.0,8.999999999999999e-08
1538769460.144811,1248,1538769460,144536608,base_link,0.3128266990418287,-0.05433922085581109,0.14819522526789836,-0.9366028404031097,1.0,0.0,0.0,0.0,1.0,0.0,0.0,0.0,1.0,-0.18910422921180725,-0.20390149950981137,0.30064278841018677,1.2184696791468346e-07,0.0,0.0,0.0,1.2184696791468346e-07,0.0,0.0,0.0,1.2184696791468346e-07,0.2549729,-0.21574629999999886,9.34573745,8.999999999999999e-08,0.0,0.0,0.0,8.999999999999999e-08,0.0,0.0,0.0,8.999999999999999e-08
1538769460.5034003,1249,1538769460,503036000,base_link,0.35267129678995185,-0.037622260185354,0.05193356007896821,-0.9335472282089232,1.0,0.0,0.0,0.0,1.0,0.0,0.0,0.0,1.0,-0.19089116156101227,-0.3513853251934051,0.4584162831306458,1.2184696791468346e-07,0.0,0.0,0.0,1.2184696791468346e-07,0.0,0.0,0.0,1.2184696791468346e-07,0.6276256,0.1667130500000015,12.09159945,8.999999999999999e-08,0.0,0.0,0.0,8.999999999999999e-08,0.0,0.0,0.0,8.999999999999999e-08
1538769460.912009,1250,1538769460,909643200,base_link,0.39211237700970286,0.003810129742419347,-0.05354012527173718,-0.9183500540061145,1.0,0.0,0.0,0.0,1.0,0.0,0.0,0.0,1.0,-0.18237118422985077,-0.4296914637088775,0.39367091655731207,1.2184696791468346e-07,0.0,0.0,0.0,1.2184696791468346e-07,0.0,0.0,0.0,1.2184696791468346e-07,1.2160246,0.06864655000000176,14.38635555,8.999999999999999e-08,0.0,0.0,0.0,8.999999999999999e-08,0.0,0.0,0.0,8.999999999999999e-08
1538769461.3164454,1251,1538769461,316112608,base_link,0.3937537839460404,0.06379011517699414,-0.15468514437441794,-0.9038591067991439,1.0,0.0,0.0,0.0,1.0,0.0,0.0,0.0,1.0,0.0329064279794693,-0.5148740410804749,0.33735343813896185,1.2184696791468346e-07,0.0,0.0,0.0,1.2184696791468346e-07,0.0,0.0,0.0,1.2184696791468346e-07,1.67693715,1.9359608242967726e-15,15.8083198,8.999999999999999e-08,0.0,0.0,0.0,8.999999999999999e-08,0.0,0.0,0.0,8.999999999999999e-08
1538769461.6771746,1252,1538769461,676708288,base_link,0.38096318497839704,0.12060962114605979,-0.24869195048825887,-0.8823109909439331,1.0,0.0,0.0,0.0,1.0,0.0,0.0,0.0,1.0,-0.04384125769138336,-0.5199046730995178,0.4383723735809327,1.2184696791468346e-07,0.0,0.0,0.0,1.2184696791468346e-07,0.0,0.0,0.0,1.2184696791468346e-07,1.93191005,-0.3040061499999981,15.64160675,8.999999999999999e-08,0.0,0.0,0.0,8.999999999999999e-08,0.0,0.0,0.0,8.999999999999999e-08
1538769462.1235726,1253,1538769462,121099488,base_link,0.37247955041099773,0.19050152681803048,-0.3723490410085864,-0.8284469472848617,1.0,0.0,0.0,0.0,1.0,0.0,0.0,0.0,1.0,-0.26153889298439026,-0.5423453450202942,0.3388876020908356,1.2184696791468346e-07,0.0,0.0,0.0,1.2184696791468346e-07,0.0,0.0,0.0,1.2184696791468346e-07,1.96133,0.48052585000000214,17.6715833,8.999999999999999e-08,0.0,0.0,0.0,8.999999999999999e-08,0.0,0.0,0.0,8.999999999999999e-08
1538769462.5662866,1254,1538769462,565484576,base_link,0.34640468073095226,0.27596123677459683,-0.477717960744324,-0.7587059660684147,1.0,0.0,0.0,0.0,1.0,0.0,0.0,0.0,1.0,0.09296759963035583,-0.631101131439209,0.403852790594101,1.2184696791468346e-07,0.0,0.0,0.0,1.2184696791468346e-07,0.0,0.0,0.0,1.2184696791468346e-07,2.353596,-0.3726526999999978,18.3580488,8.999999999999999e-08,0.0,0.0,0.0,8.999999999999999e-08,0.0,0.0,0.0,8.999999999999999e-08
1538769462.813027,1255,1538769462,812177728,base_link,0.31993636796975444,0.31323040498811644,-0.5491343657044471,-0.7056761879528577,1.0,0.0,0.0,0.0,1.0,0.0,0.0,0.0,1.0,-0.04597635567188263,-0.6508100032806395,0.5213785767555238,1.2184696791468346e-07,0.0,0.0,0.0,1.2184696791468346e-07,0.0,0.0,0.0,1.2184696791468346e-07,2.157463,0.08825985000000233,19.05432095,8.999999999999999e-08,0.0,0.0,0.0,8.999999999999999e-08,0.0,0.0,0.0,8.999999999999999e-08
1538769463.3189778,1256,1538769463,318407584,base_link,0.23639185353592396,0.3745773599057931,-0.67381180850097,-0.5914290656980838,1.0,0.0,0.0,0.0,1.0,0.0,0.0,0.0,1.0,0.34297075867652893,-0.549248218536377,0.17795920372009283,1.2184696791468346e-07,0.0,0.0,0.0,1.2184696791468346e-07,0.0,0.0,0.0,1.2184696791468346e-07,2.1770763,0.500139150000002,16.42613875,8.999999999999999e-08,0.0,0.0,0.0,8.999999999999999e-08,0.0,0.0,0.0,8.999999999999999e-08
1538769463.6456175,1257,1538769463,644732608,base_link,0.1223072592651129,0.33169553775135197,-0.7547357054843504,-0.5526237593824012,1.0,0.0,0.0,0.0,1.0,0.0,0.0,0.0,1.0,1.0985432863235474,-0.43951171636581415,0.2579429745674134,1.2184696791468346e-07,0.0,0.0,0.0,1.2184696791468346e-07,0.0,0.0,0.0,1.2184696791468346e-07,2.1966896,-0.06864654999999781,17.87752295,8.999999999999999e-08,0.0,0.0,0.0,8.999999999999999e-08,0.0,0.0,0.0,8.999999999999999e-08
1538769464.140806,1258,1538769464,140489408,base_link,-0.0544334435156382,0.14995179233325828,-0.8617598047906123,-0.4815822868942745,1.0,0.0,0.0,0.0,1.0,0.0,0.0,0.0,1.0,0.9139699935913086,-0.09921777993440627,0.06855005025863649,1.2184696791468346e-07,0.0,0.0,0.0,1.2184696791468346e-07,0.0,0.0,0.0,1.2184696791468346e-07,0.67665885,1.019891600000002,15.4552804,8.999999999999999e-08,0.0,0.0,0.0,8.999999999999999e-08,0.0,0.0,0.0,8.999999999999999e-08
1538769464.5387611,1259,1538769464,538201920,base_link,-0.13246895327400074,0.008856021063419107,-0.8743007064655905,-0.46687452488134773,1.0,0.0,0.0,0.0,1.0,0.0,0.0,0.0,1.0,0.6172618269920349,0.08381389826536179,-0.025715474039316188,1.2184696791468346e-07,0.0,0.0,0.0,1.2184696791468346e-07,0.0,0.0,0.0,1.2184696791468346e-07,0.0588399,0.28439285000000125,10.179302700000001,8.999999999999999e-08,0.0,0.0,0.0,8.999999999999999e-08,0.0,0.0,0.0,8.999999999999999e-08
1538769464.928564,1260,1538769464,925025696,base_link,-0.14102978392104523,-0.0653055391657428,-0.8730795272620342,-0.4621449184805106,1.0,0.0,0.0,0.0,1.0,0.0,0.0,0.0,1.0,0.12069855630397797,0.17097368836402893,-0.06767097860574725,1.2184696791468346e-07,0.0,0.0,0.0,1.2184696791468346e-07,0.0,0.0,0.0,1.2184696791468346e-07,-0.02941995,0.5491724000000009,6.99214145,8.999999999999999e-08,0.0,0.0,0.0,8.999999999999999e-08,0.0,0.0,0.0,8.999999999999999e-08
1538769465.270847,1261,1538769465,270391104,base_link,-0.10565562591427101,-0.07629435052959135,-0.8691881084346817,-0.47699904920835173,1.0,0.0,0.0,0.0,1.0,0.0,0.0,0.0,1.0,-0.14447788894176483,0.1666794270277023,-0.1291339844465256,1.2184696791468346e-07,0.0,0.0,0.0,1.2184696791468346e-07,0.0,0.0,0.0,1.2184696791468346e-07,-0.2549729,0.7256921000000008,7.30595425,8.999999999999999e-08,0.0,0.0,0.0,8.999999999999999e-08,0.0,0.0,0.0,8.999999999999999e-08
1538769465.6221025,1262,1538769465,619931328,base_link,-0.05169435154281796,-0.05982416062351561,-0.8625988951458136,-0.49967180220368723,1.0,0.0,0.0,0.0,1.0,0.0,0.0,0.0,1.0,-0.16109420359134674,0.2095128148794174,-0.1274046450853348,1.2184696791468346e-07,0.0,0.0,0.0,1.2184696791468346e-07,0.0,0.0,0.0,1.2184696791468346e-07,-0.2941995,0.32361945000000086,6.58026215,8.999999999999999e-08,0.0,0.0,0.0,8.999999999999999e-08,0.0,0.0,0.0,8.999999999999999e-08
1538769466.1402788,1263,1538769466,139696448,base_link,0.015730709259994202,-0.036046271759287735,-0.8594467762667569,-0.5097101625856721,1.0,0.0,0.0,0.0,1.0,0.0,0.0,0.0,1.0,-0.18900427222251892,0.1329079419374466,0.03693870455026625,1.2184696791468346e-07,0.0,0.0,0.0,1.2184696791468346e-07,0.0,0.0,0.0,1.2184696791468346e-07,-0.4511059,0.049033250000000785,6.3939358,8.999999999999999e-08,0.0,0.0,0.0,8.999999999999999e-08,0.0,0.0,0.0,8.999999999999999e-08
1538769466.5587885,1264,1538769466,558520320,base_link,0.07633830230926737,0.02708251694320937,-0.869690202967864,-0.4869065123186125,1.0,0.0,0.0,0.0,1.0,0.0,0.0,0.0,1.0,-0.7730836868286133,0.04727070033550264,0.1264953464269638,1.2184696791468346e-07,0.0,0.0,0.0,1.2184696791468346e-07,0.0,0.0,0.0,1.2184696791468346e-07,-0.5295591,0.372652700000001,8.0218397,8.999999999999999e-08,0.0,0.0,0.0,8.999999999999999e-08,0.0,0.0,0.0,8.999999999999999e-08
1538769466.9623911,1265,1538769466,961995104,base_link,0.14632720829046647,0.13908231995402937,-0.8710835410095603,-0.4477252739932933,1.0,0.0,0.0,0.0,1.0,0.0,0.0,0.0,1.0,-0.5447285175323486,-0.007287546060979354,0.09997820854187012,1.2184696791468346e-07,0.0,0.0,0.0,1.2184696791468346e-07,0.0,0.0,0.0,1.2184696791468346e-07,-0.44129925000000003,0.3040061500000012,9.79684335,8.999999999999999e-08,0.0,0.0,0.0,8.999999999999999e-08,0.0,0.0,0.0,8.999999999999999e-08
1538769467.2857502,1266,1538769467,284731328,base_link,0.16523400865691112,0.1842221098996816,-0.8734134610254181,-0.41941490520352065,1.0,0.0,0.0,0.0,1.0,0.0,0.0,0.0,1.0,-0.31057843565940857,-0.10710439085960385,0.19866693019866943,1.2184696791468346e-07,0.0,0.0,0.0,1.2184696791468346e-07,0.0,0.0,0.0,1.2184696791468346e-07,-0.1569064,-0.08825984999999871,10.591182,8.999999999999999e-08,0.0,0.0,0.0,8.999999999999999e-08,0.0,0.0,0.0,8.999999999999999e-08
1538769467.764723,1267,1538769467,764484896,base_link,0.16941042277330948,0.2454791967589291,-0.8956986663031066,-0.3297938322606954,1.0,0.0,0.0,0.0,1.0,0.0,0.0,0.0,1.0,-0.2039971947669983,-0.26607012748718256,0.35228377580642706,1.2184696791468346e-07,0.0,0.0,0.0,1.2184696791468346e-07,0.0,0.0,0.0,1.2184696791468346e-07,0.0,0.3040061500000016,12.66038515,8.999999999999999e-08,0.0,0.0,0.0,8.999999999999999e-08,0.0,0.0,0.0,8.999999999999999e-08
1538769468.2330627,1268,1538769468,228453952,base_link,0.15169746708195558,0.3120143458746475,-0.9080080197296952,-0.23485391748040368,1.0,0.0,0.0,0.0,1.0,0.0,0.0,0.0,1.0,-0.13495194911956787,-0.34950664639472956,0.3461059927940369,1.2184696791468346e-07,0.0,0.0,0.0,1.2184696791468346e-07,0.0,0.0,0.0,1.2184696791468346e-07,0.0392266,0.0392266000000017,13.83718315,8.999999999999999e-08,0.0,0.0,0.0,8.999999999999999e-08,0.0,0.0,0.0,8.999999999999999e-08
1538769468.7337637,1269,1538769468,733359040,base_link,0.09995624128896667,0.35732183166836956,-0.9206747992735109,-0.12119312036259909,1.0,0.0,0.0,0.0,1.0,0.0,0.0,0.0,1.0,-0.24967274069786072,-0.41460213065147394,0.3284877538681031,1.2184696791468346e-07,0.0,0.0,0.0,1.2184696791468346e-07,0.0,0.0,0.0,1.2184696791468346e-07,0.3334261,0.0686465500000018,14.71978165,8.999999999999999e-08,0.0,0.0,0.0,8.999999999999999e-08,0.0,0.0,0.0,8.999999999999999e-08
1538769469.0893614,1270,1538769469,87800288,base_link,0.058819086583986546,0.3782176146936485,-0.9233908094327063,-0.02900282820835874,1.0,0.0,0.0,0.0,1.0,0.0,0.0,0.0,1.0,0.0026820525527000427,-0.4324971139430999,0.3720128536224366,1.2184696791468346e-07,0.0,0.0,0.0,1.2184696791468346e-07,0.0,0.0,0.0,1.2184696791468346e-07,0.44129925000000003,-0.15690639999999825,14.40596885,8.999999999999999e-08,0.0,0.0,0.0,8.999999999999999e-08,0.0,0.0,0.0,8.999999999999999e-08
1538769469.4541883,1271,1538769469,453692416,base_link,0.005956642364028651,0.37765008717145826,-0.9232401964456479,0.070515741066364,1.0,0.0,0.0,0.0,1.0,0.0,0.0,0.0,1.0,0.018543781712651253,-0.4860525429248809,0.3544211089611054,1.2184696791468346e-07,0.0,0.0,0.0,1.2184696791468346e-07,0.0,0.0,0.0,1.2184696791468346e-07,0.46091255,0.21574630000000192,15.60238015,8.999999999999999e-08,0.0,0.0,0.0,8.999999999999999e-08,0.0,0.0,0.0,8.999999999999999e-08
1538769469.859645,1272,1538769469,859307616,base_link,-0.05615053981813812,0.3947941544768906,-0.9000373306560084,0.1758337166035448,1.0,0.0,0.0,0.0,1.0,0.0,0.0,0.0,1.0,0.011819250881671906,-0.46472895145416254,0.35261416435241705,1.2184696791468346e-07,0.0,0.0,0.0,1.2184696791468346e-07,0.0,0.0,0.0,1.2184696791468346e-07,0.8041453000000001,0.16671305000000203,16.60265845,8.999999999999999e-08,0.0,0.0,0.0,8.999999999999999e-08,0.0,0.0,0.0,8.999999999999999e-08
1538769470.2687016,1273,1538769470,268035040,base_link,-0.1017222520537954,0.3309429060494076,-0.8964253813541461,0.27667835483960596,1.0,0.0,0.0,0.0,1.0,0.0,0.0,0.0,1.0,0.6453091502189636,-0.4455333054065704,0.3061922192573548,1.2184696791468346e-07,0.0,0.0,0.0,1.2184696791468346e-07,0.0,0.0,0.0,1.2184696791468346e-07,0.48052585000000003,0.10787315000000183,14.9257213,8.999999999999999e-08,0.0,0.0,0.0,8.999999999999999e-08,0.0,0.0,0.0,8.999999999999999e-08
1538769470.7227056,1274,1538769470,722363392,base_link,-0.09974841740144896,0.1597599325808335,-0.9097599216206443,0.3699512159467419,1.0,0.0,0.0,0.0,1.0,0.0,0.0,0.0,1.0,0.7522789239883423,-0.2404127866029739,0.1530689746141434,1.2184696791468346e-07,0.0,0.0,0.0,1.2184696791468346e-07,0.0,0.0,0.0,1.2184696791468346e-07,0.196133,0.5393657500000019,15.34740725,8.999999999999999e-08,0.0,0.0,0.0,8.999999999999999e-08,0.0,0.0,0.0,8.999999999999999e-08
1538769471.17065,1275,1538769471,170249184,base_link,-0.06889882492891843,0.014499990260985782,-0.9127450279034601,0.4024167196369422,1.0,0.0,0.0,0.0,1.0,0.0,0.0,0.0,1.0,0.6988457441329956,-0.07692173868417738,0.09917696565389635,1.2184696791468346e-07,0.0,0.0,0.0,1.2184696791468346e-07,0.0,0.0,0.0,1.2184696791468346e-07,-0.22555295,-0.01961329999999844,12.748645,8.999999999999999e-08,0.0,0.0,0.0,8.999999999999999e-08,0.0,0.0,0.0,8.999999999999999e-08
1538769471.50158,1276,1538769471,501225856,base_link,-0.03309235798389715,-0.07816672611169106,-0.9005181096568331,0.42645280272514274,1.0,0.0,0.0,0.0,1.0,0.0,0.0,0.0,1.0,0.36493322253227234,-0.005454348865896453,0.08401024341583252,1.2184696791468346e-07,0.0,0.0,0.0,1.2184696791468346e-07,0.0,0.0,0.0,1.2184696791468346e-07,-0.36284605000000003,0.6570455500000013,10.806928300000001,8.999999999999999e-08,0.0,0.0,0.0,8.999999999999999e-08,0.0,0.0,0.0,8.999999999999999e-08
1538769472.0097556,1277,1538769472,7187104,base_link,0.004809795245960169,-0.11601569117547739,-0.9020037486681258,0.41582022877611,1.0,0.0,0.0,0.0,1.0,0.0,0.0,0.0,1.0,0.09336807578802109,0.09983150660991667,-0.11836691200733186,1.2184696791468346e-07,0.0,0.0,0.0,1.2184696791468346e-07,0.0,0.0,0.0,1.2184696791468346e-07,-0.4314926,0.46091255000000103,8.44352565,8.999999999999999e-08,0.0,0.0,0.0,8.999999999999999e-08,0.0,0.0,0.0,8.999999999999999e-08
1538769472.3422434,1278,1538769472,341756832,base_link,0.031857414491542405,-0.12281536624114948,-0.912517019512844,0.3888626750619839,1.0,0.0,0.0,0.0,1.0,0.0,0.0,0.0,1.0,0.06034698709845543,0.09649198502302167,-0.1864614486694336,1.2184696791468346e-07,0.0,0.0,0.0,1.2184696791468346e-07,0.0,0.0,0.0,1.2184696791468346e-07,-0.4118793,0.4707192000000008,6.4527757,8.999999999999999e-08,0.0,0.0,0.0,8.999999999999999e-08,0.0,0.0,0.0,8.999999999999999e-08
1538769472.663775,1279,1538769472,661919136,base_link,0.04869701896954168,-0.11606066373248357,-0.9196849066693992,0.3719384292083216,1.0,0.0,0.0,0.0,1.0,0.0,0.0,0.0,1.0,-0.051214247941970825,0.08964303135871886,-0.08946270495653154,1.2184696791468346e-07,0.0,0.0,0.0,1.2184696791468346e-07,0.0,0.0,0.0,1.2184696791468346e-07,-0.392266,0.343232750000001,8.11009955,8.999999999999999e-08,0.0,0.0,0.0,8.999999999999999e-08,0.0,0.0,0.0,8.999999999999999e-08
1538769473.064447,1280,1538769473,63739648,base_link,0.056488357420379005,-0.09193943691676058,-0.9265822033983965,0.3602799269467411,1.0,0.0,0.0,0.0,1.0,0.0,0.0,0.0,1.0,-0.18254365026950836,0.06427516788244246,-0.06254041939973833,1.2184696791468346e-07,0.0,0.0,0.0,1.2184696791468346e-07,0.0,0.0,0.0,1.2184696791468346e-07,-0.40207265000000003,0.44129925000000103,8.5317855,8.999999999999999e-08,0.0,0.0,0.0,8.999999999999999e-08,0.0,0.0,0.0,8.999999999999999e-08
1538769473.375755,1281,1538769473,375356992,base_link,0.05611374052251822,-0.06186995435042772,-0.9321281337127472,0.3523641571080094,1.0,0.0,0.0,0.0,1.0,0.0,0.0,0.0,1.0,-0.148703470826149,0.02712749689817428,-0.059798672795295715,1.2184696791468346e-07,0.0,0.0,0.0,1.2184696791468346e-07,0.0,0.0,0.0,1.2184696791468346e-07,-0.53936575,0.42168595000000114,9.14960445,8.999999999999999e-08,0.0,0.0,0.0,8.999999999999999e-08,0.0,0.0,0.0,8.999999999999999e-08
1538769473.7326975,1282,1538769473,729857504,base_link,0.05747806386830154,-0.05204940543181163,-0.9374461297463952,0.33938456858208954,1.0,0.0,0.0,0.0,1.0,0.0,0.0,0.0,1.0,0.003493769094347954,0.007956332527101033,-0.05482137203216553,1.2184696791468346e-07,0.0,0.0,0.0,1.2184696791468346e-07,0.0,0.0,0.0,1.2184696791468346e-07,-0.59820565,0.2353596000000011,9.218251,8.999999999999999e-08,0.0,0.0,0.0,8.999999999999999e-08,0.0,0.0,0.0,8.999999999999999e-08
1538769474.251373,1283,1538769474,250993728,base_link,0.04270644392810707,-0.026550140580452335,-0.9363658350690236,0.3474050555154077,1.0,0.0,0.0,0.0,1.0,0.0,0.0,0.0,1.0,-0.20469516515731812,-0.03773277625441551,0.01974517293274403,1.2184696791468346e-07,0.0,0.0,0.0,1.2184696791468346e-07,0.0,0.0,0.0,1.2184696791468346e-07,-0.3530394,0.4805258500000013,10.591182,8.999999999999999e-08,0.0,0.0,0.0,8.999999999999999e-08,0.0,0.0,0.0,8.999999999999999e-08
1538769474.7023418,1284,1538769474,701998048,base_link,0.034160649841493904,-0.01746641305184044,-0.9397080757290941,0.33981863813957086,1.0,0.0,0.0,0.0,1.0,0.0,0.0,0.0,1.0,-0.04088921099901199,-0.037605702877044685,-0.03815339878201484,1.2184696791468346e-07,0.0,0.0,0.0,1.2184696791468346e-07,0.0,0.0,0.0,1.2184696791468346e-07,-0.3530394,0.2843928500000013,10.5715687,8.999999999999999e-08,0.0,0.0,0.0,8.999999999999999e-08,0.0,0.0,0.0,8.999999999999999e-08
1538769475.145948,1285,1538769475,144964448,base_link,0.015345188882864616,0.013145795362534086,-0.9413189156696569,0.33691306333375803,1.0,0.0,0.0,0.0,1.0,0.0,0.0,0.0,1.0,-0.16128948330879211,-0.0029409402050077998,-0.0659208744764328,1.2184696791468346e-07,0.0,0.0,0.0,1.2184696791468346e-07,0.0,0.0,0.0,1.2184696791468346e-07,-0.24516625,0.6668522000000014,11.0226746,8.999999999999999e-08,0.0,0.0,0.0,8.999999999999999e-08,0.0,0.0,0.0,8.999999999999999e-08
1538769475.4562147,1286,1538769475,453614336,base_link,0.01380447786080444,0.006447899267650626,-0.9442345606482186,0.3289208954497877,1.0,0.0,0.0,0.0,1.0,0.0,0.0,0.0,1.0,0.16525253653526306,-0.008178939111530783,-0.01957075484097004,1.2184696791468346e-07,0.0,0.0,0.0,1.2184696791468346e-07,0.0,0.0,0.0,1.2184696791468346e-07,-0.24516625,0.22555295000000128,10.42446895,8.999999999999999e-08,0.0,0.0,0.0,8.999999999999999e-08,0.0,0.0,0.0,8.999999999999999e-08
1538769475.8125033,1287,1538769475,811700576,base_link,0.018642494592946913,-0.005687505085699068,-0.9401064378714915,0.34032336850975703,1.0,0.0,0.0,0.0,1.0,0.0,0.0,0.0,1.0,0.13437598943710327,0.0009057994466275094,0.09526816010475159,1.2184696791468346e-07,0.0,0.0,0.0,1.2184696791468346e-07,0.0,0.0,0.0,1.2184696791468346e-07,-0.2549729,0.1961330000000012,9.7281968,8.999999999999999e-08,0.0,0.0,0.0,8.999999999999999e-08,0.0,0.0,0.0,8.999999999999999e-08
1538769476.2951994,1288,1538769476,293193504,base_link,0.02105672245028525,-0.005878068922106545,-0.9356431151611257,0.35226981675554214,1.0,0.0,0.0,0.0,1.0,0.0,0.0,0.0,1.0,0.040004633367061615,0.019899740815162652,-0.05788026005029678,1.2184696791468346e-07,0.0,0.0,0.0,1.2184696791468346e-07,0.0,0.0,0.0,1.2184696791468346e-07,-0.2549729,0.5001391500000013,10.03220295,8.999999999999999e-08,0.0,0.0,0.0,8.999999999999999e-08,0.0,0.0,0.0,8.999999999999999e-08
1538769476.6590154,1289,1538769476,658064224,base_link,0.03216024867574652,-0.026334437245648705,-0.9377521604735233,0.34480878954473965,1.0,0.0,0.0,0.0,1.0,0.0,0.0,0.0,1.0,0.0904606431722641,-0.004779385868459938,0.012573638930916786,1.2184696791468346e-07,0.0,0.0,0.0,1.2184696791468346e-07,0.0,0.0,0.0,1.2184696791468346e-07,-0.2941995,0.06864655000000118,9.639936950000001,8.999999999999999e-08,0.0,0.0,0.0,8.999999999999999e-08,0.0,0.0,0.0,8.999999999999999e-08
1538769477.092056,1290,1538769477,91567744,base_link,0.036258069077156986,-0.03357528741571785,-0.9367022577900251,0.34662217579493876,1.0,0.0,0.0,0.0,1.0,0.0,0.0,0.0,1.0,-0.009158936329185963,0.003231707494705919,0.027714021503925323,1.2184696791468346e-07,0.0,0.0,0.0,1.2184696791468346e-07,0.0,0.0,0.0,1.2184696791468346e-07,-0.2549729,0.30400615000000114,9.4339973,8.999999999999999e-08,0.0,0.0,0.0,8.999999999999999e-08,0.0,0.0,0.0,8.999999999999999e-08
1538769477.4273279,1291,1538769477,426972256,base_link,0.03848754504054123,-0.03443768330884793,-0.9381558564670767,0.3423395154252541,1.0,0.0,0.0,0.0,1.0,0.0,0.0,0.0,1.0,0.04093450680375099,0.01812046952545642,-0.06812992691993713,1.2184696791468346e-07,0.0,0.0,0.0,1.2184696791468346e-07,0.0,0.0,0.0,1.2184696791468346e-07,-0.28439285000000003,0.45110590000000117,9.44380395,8.999999999999999e-08,0.0,0.0,0.0,8.999999999999999e-08,0.0,0.0,0.0,8.999999999999999e-08
1538769477.7786794,1292,1538769477,777355616,base_link,0.03853146832773854,-0.029405752498872634,-0.9405458189929358,0.3361907048735752,1.0,0.0,0.0,0.0,1.0,0.0,0.0,0.0,1.0,-0.053055405616760254,-0.021227376535534866,-0.04918821528553963,1.2184696791468346e-07,0.0,0.0,0.0,1.2184696791468346e-07,0.0,0.0,0.0,1.2184696791468346e-07,-0.196133,0.4216859500000012,9.79684335,8.999999999999999e-08,0.0,0.0,0.0,8.999999999999999e-08,0.0,0.0,0.0,8.999999999999999e-08
1538769478.0197535,1293,1538769478,18919168,base_link,0.03573045768936761,-0.03226364435338651,-0.9430398228029953,0.32917819528948383,1.0,0.0,0.0,0.0,1.0,0.0,0.0,0.0,1.0,0.08110073953866959,-0.026433639228343964,0.008016804233193401,1.2184696791468346e-07,0.0,0.0,0.0,1.2184696791468346e-07,0.0,0.0,0.0,1.2184696791468346e-07,-0.196133,0.03922660000000133,10.87557485,8.999999999999999e-08,0.0,0.0,0.0,8.999999999999999e-08,0.0,0.0,0.0,8.999999999999999e-08
1538769478.4224927,1294,1538769478,422028256,base_link,0.030039998600149293,-0.04029785761722488,-0.9436179952293724,0.3271983499879933,1.0,0.0,0.0,0.0,1.0,0.0,0.0,0.0,1.0,0.00180136039853096,-0.05099639669060707,-0.025477178394794457,1.2184696791468346e-07,0.0,0.0,0.0,1.2184696791468346e-07,0.0,0.0,0.0,1.2184696791468346e-07,-0.1372931,0.10787315000000135,10.983448,8.999999999999999e-08,0.0,0.0,0.0,8.999999999999999e-08,0.0,0.0,0.0,8.999999999999999e-08
1538769478.8543344,1295,1538769478,854024576,base_link,0.019626626442163123,-0.04385434726242724,-0.9403546216013869,0.3367859518946695,1.0,0.0,0.0,0.0,1.0,0.0,0.0,0.0,1.0,-0.04233377426862717,-0.043005242943763726,0.06373102217912674,1.2184696791468346e-07,0.0,0.0,0.0,1.2184696791468346e-07,0.0,0.0,0.0,1.2184696791468346e-07,-0.08825985,0.5295591000000014,11.571847,8.999999999999999e-08,0.0,0.0,0.0,8.999999999999999e-08,0.0,0.0,0.0,8.999999999999999e-08
1538769479.320649,1296,1538769479,320325952,base_link,0.022969727791015377,-0.07111215137452837,-0.939120419909724,0.3353629234734758,1.0,0.0,0.0,0.0,1.0,0.0,0.0,0.0,1.0,0.8398774266242981,-0.01330303959548475,-0.13042575120925903,1.2184696791468346e-07,0.0,0.0,0.0,1.2184696791468346e-07,0.0,0.0,0.0,1.2184696791468346e-07,-0.14709975,0.5883990000000013,10.6696352,8.999999999999999e-08,0.0,0.0,0.0,8.999999999999999e-08,0.0,0.0,0.0,8.999999999999999e-08
1538769479.740217,1297,1538769479,739924704,base_link,0.07073245164264301,-0.22618746495022402,-0.9227885550922941,0.30380492684400073,1.0,0.0,0.0,0.0,1.0,0.0,0.0,0.0,1.0,0.5470300912857056,-0.04737315699458123,-0.0803467407822609,1.2184696791468346e-07,0.0,0.0,0.0,1.2184696791468346e-07,0.0,0.0,0.0,1.2184696791468346e-07,-0.04903325,0.48052585000000125,10.50292215,8.999999999999999e-08,0.0,0.0,0.0,8.999999999999999e-08,0.0,0.0,0.0,8.999999999999999e-08
1538769480.0198011,1298,1538769480,17444320,base_link,0.08450414898682194,-0.2822033622129602,-0.9137153060668342,0.2799011443686957,1.0,0.0,0.0,0.0,1.0,0.0,0.0,0.0,1.0,0.25402751564979553,-0.07980173826217654,-0.17121343314647675,1.2184696791468346e-07,0.0,0.0,0.0,1.2184696791468346e-07,0.0,0.0,0.0,1.2184696791468346e-07,-0.0196133,0.8727918500000013,10.22833595,8.999999999999999e-08,0.0,0.0,0.0,8.999999999999999e-08,0.0,0.0,0.0,8.999999999999999e-08
1538769480.410517,1299,1538769480,410345504,base_link,0.08961194947185223,-0.31050636643596913,-0.9202327184794903,0.2207424715690951,1.0,0.0,0.0,0.0,1.0,0.0,0.0,0.0,1.0,0.12079139798879623,-0.141492247581482,-0.3556087911128998,1.2184696791468346e-07,0.0,0.0,0.0,1.2184696791468346e-07,0.0,0.0,0.0,1.2184696791468346e-07,0.0980665,0.8237586000000012,10.091042850000001,8.999999999999999e-08,0.0,0.0,0.0,8.999999999999999e-08,0.0,0.0,0.0,8.999999999999999e-08
1538769480.764381,1300,1538769480,763735200,base_link,0.07776985617376769,-0.32635893478094014,-0.9298275056863234,0.15120352121730463,1.0,0.0,0.0,0.0,1.0,0.0,0.0,0.0,1.0,-0.002070910297334194,-0.23354396224021914,-0.2541292309761047,1.2184696791468346e-07,0.0,0.0,0.0,1.2184696791468346e-07,0.0,0.0,0.0,1.2184696791468346e-07,0.3334261,0.5099458000000014,11.93469305,8.999999999999999e-08,0.0,0.0,0.0,8.999999999999999e-08,0.0,0.0,0.0,8.999999999999999e-08
1538769481.0640328,1301,1538769481,63691584,base_link,0.05484893165688953,-0.3166058573300748,-0.9412935723679853,0.10353133061591917,1.0,0.0,0.0,0.0,1.0,0.0,0.0,0.0,1.0,-0.17466336488723755,-0.22924576699733737,-0.2672144770622253,1.2184696791468346e-07,0.0,0.0,0.0,1.2184696791468346e-07,0.0,0.0,0.0,1.2184696791468346e-07,0.48052585000000003,0.8924051500000015,12.4936721,8.999999999999999e-08,0.0,0.0,0.0,8.999999999999999e-08,0.0,0.0,0.0,8.999999999999999e-08
1538769481.3602536,1302,1538769481,359829664,base_link,0.0345273283984469,-0.2942800342744013,-0.9533872043246369,0.05709609138265203,1.0,0.0,0.0,0.0,1.0,0.0,0.0,0.0,1.0,-0.22748082876205444,-0.22689940035343173,-0.25019612908363337,1.2184696791468346e-07,0.0,0.0,0.0,1.2184696791468346e-07,0.0,0.0,0.0,1.2184696791468346e-07,0.46091255,0.7158854500000014,11.66010685,8.999999999999999e-08,0.0,0.0,0.0,8.999999999999999e-08,0.0,0.0,0.0,8.999999999999999e-08
1538769481.7318232,1303,1538769481,725380416,base_link,0.004716024204143148,-0.22324177107070414,-0.9747482666134415,0.002586019917275744,1.0,0.0,0.0,0.0,1.0,0.0,0.0,0.0,1.0,-0.4526960253715515,-0.1918822675943375,-0.22673794627189633,1.2184696791468346e-07,0.0,0.0,0.0,1.2184696791468346e-07,0.0,0.0,0.0,1.2184696791468346e-07,0.55897905,0.7256921000000017,13.62143685,8.999999999999999e-08,0.0,0.0,0.0,8.999999999999999e-08,0.0,0.0,0.0,8.999999999999999e-08
1538769482.256713,1304,1538769482,256208032,base_link,-0.018296394452590705,-0.14864085866945012,-0.9870207055108904,-0.057976408795542285,1.0,0.0,0.0,0.0,1.0,0.0,0.0,0.0,1.0,-0.21902042627334595,-0.08910229802131654,-0.1505802571773529,1.2184696791468346e-07,0.0,0.0,0.0,1.2184696791468346e-07,0.0,0.0,0.0,1.2184696791468346e-07,0.2745862,0.4511059000000014,11.1011278,8.999999999999999e-08,0.0,0.0,0.0,8.999999999999999e-08,0.0,0.0,0.0,8.999999999999999e-08
1538769482.6057124,1305,1538769482,604086016,base_link,-0.025176423600515595,-0.10664368206421568,-0.990651227276699,-0.08126142175499962,1.0,0.0,0.0,0.0,1.0,0.0,0.0,0.0,1.0,-0.23894356191158295,-0.056208007037639625,-0.07512226700782776,1.2184696791468346e-07,0.0,0.0,0.0,1.2184696791468346e-07,0.0,0.0,0.0,1.2184696791468346e-07,0.20593965,0.4609125500000013,10.9049948,8.999999999999999e-08,0.0,0.0,0.0,8.999999999999999e-08,0.0,0.0,0.0,8.999999999999999e-08
1538769483.043337,1306,1538769483,37362208,base_link,-0.022402476547222806,-0.056508280157856784,-0.9928131977610364,-0.10308684527939271,1.0,0.0,0.0,0.0,1.0,0.0,0.0,0.0,1.0,-0.2005632072687149,0.004257465247064818,-0.09360407292842865,1.2184696791468346e-07,0.0,0.0,0.0,1.2184696791468346e-07,0.0,0.0,0.0,1.2184696791468346e-07,0.0392266,0.39226600000000117,9.9243298,8.999999999999999e-08,0.0,0.0,0.0,8.999999999999999e-08,0.0,0.0,0.0,8.999999999999999e-08
1538769483.5501542,1307,1538769483,549302432,base_link,-0.011776718423772379,-0.014033485889006578,-0.993118550924655,-0.115671578126538,1.0,0.0,0.0,0.0,1.0,0.0,0.0,0.0,1.0,-0.09647233039140701,0.03369300439953804,0.004358631558716293,1.2184696791468346e-07,0.0,0.0,0.0,1.2184696791468346e-07,0.0,0.0,0.0,1.2184696791468346e-07,0.00980665,0.18632635000000108,8.85540495,8.999999999999999e-08,0.0,0.0,0.0,8.999999999999999e-08,0.0,0.0,0.0,8.999999999999999e-08
1538769484.017549,1308,1538769484,16988544,base_link,-0.0010446236219027194,0.017794918492255826,-0.9947165781198435,-0.10109984594890137,1.0,0.0,0.0,0.0,1.0,0.0,0.0,0.0,1.0,-0.15108944475650787,0.04407630860805512,0.07397716492414474,1.2184696791468346e-07,0.0,0.0,0.0,1.2184696791468346e-07,0.0,0.0,0.0,1.2184696791468346e-07,0.0784532,0.38245935000000114,9.20844435,8.999999999999999e-08,0.0,0.0,0.0,8.999999999999999e-08,0.0,0.0,0.0,8.999999999999999e-08
1538769484.3995814,1309,1538769484,399056800,base_link,0.00816293575481157,0.0257551221281586,-0.9952607616933129,-0.09341336305728809,1.0,0.0,0.0,0.0,1.0,0.0,0.0,0.0,1.0,0.03610750660300255,0.05802305042743683,0.02672415599226951,1.2184696791468346e-07,0.0,0.0,0.0,1.2184696791468346e-07,0.0,0.0,0.0,1.2184696791468346e-07,0.0196133,0.30400615000000114,9.50264385,8.999999999999999e-08,0.0,0.0,0.0,8.999999999999999e-08,0.0,0.0,0.0,8.999999999999999e-08
1538769484.7178137,1310,1538769484,717517344,base_link,0.015582196602434161,0.014785719511815959,-0.9961019200050452,-0.08555432548868447,1.0,0.0,0.0,0.0,1.0,0.0,0.0,0.0,1.0,0.02798635885119438,0.03484121337532998,0.08344472199678421,1.2184696791468346e-07,0.0,0.0,0.0,1.2184696791468346e-07,0.0,0.0,0.0,1.2184696791468346e-07,0.0196133,0.23535960000000114,9.2770909,8.999999999999999e-08,0.0,0.0,0.0,8.999999999999999e-08,0.0,0.0,0.0,8.999999999999999e-08
1538769485.11681,1311,1538769485,116544384,base_link,0.025237275223641487,0.01723573483462534,-0.9966426786244565,-0.07595643835953042,1.0,0.0,0.0,0.0,1.0,0.0,0.0,0.0,1.0,0.012397260405123234,0.056755241006612785,0.033283703029155724,1.2184696791468346e-07,0.0,0.0,0.0,1.2184696791468346e-07,0.0,0.0,0.0,1.2184696791468346e-07,-0.0392266,0.29419950000000117,9.28689755,8.999999999999999e-08,0.0,0.0,0.0,8.999999999999999e-08,0.0,0.0,0.0,8.999999999999999e-08
1538769485.3876524,1312,1538769485,387418464,base_link,0.028311603674328233,0.005572915443863062,-0.9969007714321712,-0.07318638964169177,1.0,0.0,0.0,0.0,1.0,0.0,0.0,0.0,1.0,0.0748603492975235,0.01497486606240273,0.041725173592567444,1.2184696791468346e-07,0.0,0.0,0.0,1.2184696791468346e-07,0.0,0.0,0.0,1.2184696791468346e-07,0.0588399,0.28439285000000114,9.52225715,8.999999999999999e-08,0.0,0.0,0.0,8.999999999999999e-08,0.0,0.0,0.0,8.999999999999999e-08
1538769485.7832105,1313,1538769485,782979296,base_link,0.024869755114434008,-0.020082301846499253,-0.9973006693964039,-0.06610273258026994,1.0,0.0,0.0,0.0,1.0,0.0,0.0,0.0,1.0,0.11707179248332977,-0.01012748945504427,-0.0007114720065146673,1.2184696791468346e-07,0.0,0.0,0.0,1.2184696791468346e-07,0.0,0.0,0.0,1.2184696791468346e-07,0.0196133,0.45110590000000134,10.8657682,8.999999999999999e-08,0.0,0.0,0.0,8.999999999999999e-08,0.0,0.0,0.0,8.999999999999999e-08
1538769486.2195413,1314,1538769486,218830208,base_link,0.021315461021970416,-0.03768692405926604,-0.9967008074727753,-0.06865018033108072,1.0,0.0,0.0,0.0,1.0,0.0,0.0,0.0,1.0,0.12212562561035156,-0.009485634043812755,-0.026691578328609467,1.2184696791468346e-07,0.0,0.0,0.0,1.2184696791468346e-07,0.0,0.0,0.0,1.2184696791468346e-07,-0.04903325,0.3726527000000013,10.198916,8.999999999999999e-08,0.0,0.0,0.0,8.999999999999999e-08,0.0,0.0,0.0,8.999999999999999e-08
1538769486.6104076,1315,1538769486,610028448,base_link,0.019472147667136227,-0.04690322354616218,-0.996424194334388,-0.06752590637136113,1.0,0.0,0.0,0.0,1.0,0.0,0.0,0.0,1.0,0.02830103412270546,0.0010966998524963864,0.006677473895251751,1.2184696791468346e-07,0.0,0.0,0.0,1.2184696791468346e-07,0.0,0.0,0.0,1.2184696791468346e-07,0.02941995,0.4805258500000012,9.6889702,8.999999999999999e-08,0.0,0.0,0.0,8.999999999999999e-08,0.0,0.0,0.0,8.999999999999999e-08
1538769487.0239077,1316,1538769487,23642080,base_link,0.018698735904501294,-0.042592502453487134,-0.9964022713675333,-0.07084313392237634,1.0,0.0,0.0,0.0,1.0,0.0,0.0,0.0,1.0,-0.04113009572029114,0.006674013100564478,-0.0144111979752779,1.2184696791468346e-07,0.0,0.0,0.0,1.2184696791468346e-07,0.0,0.0,0.0,1.2184696791468346e-07,0.04903325,0.46091255000000125,10.07142955,8.999999999999999e-08,0.0,0.0,0.0,8.999999999999999e-08,0.0,0.0,0.0,8.999999999999999e-08
1538769487.360213,1317,1538769487,359937184,base_link,0.019691382505022583,-0.0366294749712323,-0.9962942937679882,-0.07528752369229852,1.0,0.0,0.0,0.0,1.0,0.0,0.0,0.0,1.0,-0.02739691361784935,0.004274108912795781,-0.006061001680791379,1.2184696791468346e-07,0.0,0.0,0.0,1.2184696791468346e-07,0.0,0.0,0.0,1.2184696791468346e-07,0.04903325,0.26477955000000114,9.42419065,8.999999999999999e-08,0.0,0.0,0.0,8.999999999999999e-08,0.0,0.0,0.0,8.999999999999999e-08
1538769487.730642,1318,1538769487,730162400,base_link,0.019470645352501315,-0.0368570364423099,-0.9967556871342577,-0.06885167390674624,1.0,0.0,0.0,0.0,1.0,0.0,0.0,0.0,1.0,-0.02008446305990219,0.005905859638005498,0.018731052055954933,1.2184696791468346e-07,0.0,0.0,0.0,1.2184696791468346e-07,0.0,0.0,0.0,1.2184696791468346e-07,0.0,0.5197524500000013,10.03220295,8.999999999999999e-08,0.0,0.0,0.0,8.999999999999999e-08,0.0,0.0,0.0,8.999999999999999e-08
1538769488.108874,1319,1538769488,108612224,base_link,0.021123835035469135,-0.032451536174957024,-0.9966870891005033,-0.07152291810073952,1.0,0.0,0.0,0.0,1.0,0.0,0.0,0.0,1.0,-0.06543020159006119,0.01529291085898876,-0.016581483185291294,1.2184696791468346e-07,0.0,0.0,0.0,1.2184696791468346e-07,0.0,0.0,0.0,1.2184696791468346e-07,0.0588399,0.45110590000000117,9.5320638,8.999999999999999e-08,0.0,0.0,0.0,8.999999999999999e-08,0.0,0.0,0.0,8.999999999999999e-08
1538769488.4134,1320,1538769488,412355520,base_link,0.022763891253963237,-0.030724978769908897,-0.9964619874992531,-0.07484175574907836,1.0,0.0,0.0,0.0,1.0,0.0,0.0,0.0,1.0,0.02829578146338463,0.01972272619605064,-0.022133298218250278,1.2184696791468346e-07,0.0,0.0,0.0,1.2184696791468346e-07,0.0,0.0,0.0,1.2184696791468346e-07,0.0980665,0.4609125500000012,9.67916355,8.999999999999999e-08,0.0,0.0,0.0,8.999999999999999e-08,0.0,0.0,0.0,8.999999999999999e-08
1538769488.7130868,1321,1538769488,712796352,base_link,0.023087774853512228,-0.032260168667418244,-0.9961367344287501,-0.07834438391798765,1.0,0.0,0.0,0.0,1.0,0.0,0.0,0.0,1.0,0.013029469177126884,-0.019586047157645226,-0.0020572363864630435,1.2184696791468346e-07,0.0,0.0,0.0,1.2184696791468346e-07,0.0,0.0,0.0,1.2184696791468346e-07,-0.04903325,0.2745862000000011,9.022118,8.999999999999999e-08,0.0,0.0,0.0,8.999999999999999e-08,0.0,0.0,0.0,8.999999999999999e-08
1538769489.213883,1322,1538769489,211151552,base_link,0.013796336989428861,-0.032368714434139974,-0.9960572131949545,-0.08143681878521686,1.0,0.0,0.0,0.0,1.0,0.0,0.0,0.0,1.0,-0.06445169448852539,-0.0300993025302887,-0.039904948323965066,1.2184696791468346e-07,0.0,0.0,0.0,1.2184696791468346e-07,0.0,0.0,0.0,1.2184696791468346e-07,0.1765197,0.5491724000000013,10.62060195,8.999999999999999e-08,0.0,0.0,0.0,8.999999999999999e-08,0.0,0.0,0.0,8.999999999999999e-08
1538769489.6293662,1323,1538769489,628887360,base_link,-0.004725781094084816,-0.17255838759418834,-0.979601975419526,-0.10286515259361106,1.0,0.0,0.0,0.0,1.0,0.0,0.0,0.0,1.0,0.8686636090278625,-0.045930746942758574,-0.0870789960026741,1.2184696791468346e-07,0.0,0.0,0.0,1.2184696791468346e-07,0.0,0.0,0.0,1.2184696791468346e-07,0.18632635,0.28439285000000125,10.34601575,8.999999999999999e-08,0.0,0.0,0.0,8.999999999999999e-08,0.0,0.0,0.0,8.999999999999999e-08
1538769490.006738,1324,1538769490,6360896,base_link,-0.03008525735753109,-0.2708783624100419,-0.9546273611930978,-0.12002662758441597,1.0,0.0,0.0,0.0,1.0,0.0,0.0,0.0,1.0,0.24830979108810425,-0.13575860857963562,-0.11063255369663237,1.2184696791468346e-07,0.0,0.0,0.0,1.2184696791468346e-07,0.0,0.0,0.0,1.2184696791468346e-07,0.2941995,0.6962721500000014,10.8657682,8.999999999999999e-08,0.0,0.0,0.0,8.999999999999999e-08,0.0,0.0,0.0,8.999999999999999e-08
1538769490.25795,1325,1538769490,256477152,base_link,-0.04280119981365879,-0.29626870606404965,-0.9418581340270649,-0.15263081755890745,1.0,0.0,0.0,0.0,1.0,0.0,0.0,0.0,1.0,0.22602644562721252,-0.13002671301364901,-0.3199978470802307,1.2184696791468346e-07,0.0,0.0,0.0,1.2184696791468346e-07,0.0,0.0,0.0,1.2184696791468346e-07,0.4903325,1.2062179500000014,11.4933938,8.999999999999999e-08,0.0,0.0,0.0,8.999999999999999e-08,0.0,0.0,0.0,8.999999999999999e-08
1538769490.7571414,1326,1538769490,753964192,base_link,-0.08115821508377472,-0.3469059270451619,-0.9027894157551373,-0.24091677547620172,1.0,0.0,0.0,0.0,1.0,0.0,0.0,0.0,1.0,0.10169187933206558,-0.3203362822532654,-0.180934265255928,1.2184696791468346e-07,0.0,0.0,0.0,1.2184696791468346e-07,0.0,0.0,0.0,1.2184696791468346e-07,0.73549875,0.5589790500000016,12.513285400000001,8.999999999999999e-08,0.0,0.0,0.0,8.999999999999999e-08,0.0,0.0,0.0,8.999999999999999e-08
1538769491.168919,1327,1538769491,168645856,base_link,-0.12783246953729294,-0.3432200106452678,-0.8784954631594206,-0.30676473922694275,1.0,0.0,0.0,0.0,1.0,0.0,0.0,0.0,1.0,0.005220117047429085,-0.2951307892799378,-0.3231189846992492,1.2184696791468346e-07,0.0,0.0,0.0,1.2184696791468346e-07,0.0,0.0,0.0,1.2184696791468346e-07,0.89240515,1.3140911000000017,13.17033095,8.999999999999999e-08,0.0,0.0,0.0,8.999999999999999e-08,0.0,0.0,0.0,8.999999999999999e-08
1538769491.5844166,1328,1538769491,583513952,base_link,-0.15868844531831958,-0.34428319346913633,-0.8373332976855341,-0.39390355241380703,1.0,0.0,0.0,0.0,1.0,0.0,0.0,0.0,1.0,0.024836409837007523,-0.3135226666927338,-0.3800339996814727,1.2184696791468346e-07,0.0,0.0,0.0,1.2184696791468346e-07,0.0,0.0,0.0,1.2184696791468346e-07,1.22583125,0.8041453000000015,13.0820711,8.999999999999999e-08,0.0,0.0,0.0,8.999999999999999e-08,0.0,0.0,0.0,8.999999999999999e-08
1538769491.9216602,1329,1538769491,921450976,base_link,-0.1868485995875133,-0.3325254673553277,-0.801019025779858,-0.46139238694520446,1.0,0.0,0.0,0.0,1.0,0.0,0.0,0.0,1.0,-0.03230264037847519,-0.3393003940582276,-0.331514686346054,1.2184696791468346e-07,0.0,0.0,0.0,1.2184696791468346e-07,0.0,0.0,0.0,1.2184696791468346e-07,1.20621795,1.1473780500000015,12.8467115,8.999999999999999e-08,0.0,0.0,0.0,8.999999999999999e-08,0.0,0.0,0.0,8.999999999999999e-08
1538769492.4106932,1330,1538769492,410387808,base_link,-0.2204552811534089,-0.29564975634737173,-0.743266964666207,-0.5581620820328037,1.0,0.0,0.0,0.0,1.0,0.0,0.0,0.0,1.0,-0.06545733660459518,-0.3656513392925263,-0.26936021447181696,1.2184696791468346e-07,0.0,0.0,0.0,1.2184696791468346e-07,0.0,0.0,0.0,1.2184696791468346e-07,1.20621795,0.7649187000000017,13.32723735,8.999999999999999e-08,0.0,0.0,0.0,8.999999999999999e-08,0.0,0.0,0.0,8.999999999999999e-08
1538769492.7241068,1331,1538769492,721717184,base_link,-0.24650300533803615,-0.2730187794942837,-0.702271720339774,-0.6095173871299999,1.0,0.0,0.0,0.0,1.0,0.0,0.0,0.0,1.0,-0.0013817660510540009,-0.3843101561069489,-0.3741843104362487,1.2184696791468346e-07,0.0,0.0,0.0,1.2184696791468346e-07,0.0,0.0,0.0,1.2184696791468346e-07,1.1375714000000001,1.068924850000002,14.8472681,8.999999999999999e-08,0.0,0.0,0.0,8.999999999999999e-08,0.0,0.0,0.0,8.999999999999999e-08
1538769493.197942,1332,1538769493,197690368,base_link,-0.2931274651982957,-0.23413352202913976,-0.6229798344467681,-0.6864065186763088,1.0,0.0,0.0,0.0,1.0,0.0,0.0,0.0,1.0,-0.11532610654830933,-0.4176610410213471,-0.28777688741683954,1.2184696791468346e-07,0.0,0.0,0.0,1.2184696791468346e-07,0.0,0.0,0.0,1.2184696791468346e-07,1.3925443,0.9218251000000018,15.3376006,8.999999999999999e-08,0.0,0.0,0.0,8.999999999999999e-08,0.0,0.0,0.0,8.999999999999999e-08
1538769493.5280843,1333,1538769493,527407712,base_link,-0.3131281734492412,-0.19831258314933167,-0.575973533634576,-0.7286133095884819,1.0,0.0,0.0,0.0,1.0,0.0,0.0,0.0,1.0,-0.0777987539768219,-0.34009686112403875,-0.2759898900985717,1.2184696791468346e-07,0.0,0.0,0.0,1.2184696791468346e-07,0.0,0.0,0.0,1.2184696791468346e-07,1.18660465,1.0787315000000017,14.317709,8.999999999999999e-08,0.0,0.0,0.0,8.999999999999999e-08,0.0,0.0,0.0,8.999999999999999e-08
1538769494.08657,1334,1538769494,86216128,base_link,-0.33372703550990573,-0.16427095832246272,-0.46789701624525687,-0.8016942685403053,1.0,0.0,0.0,0.0,1.0,0.0,0.0,0.0,1.0,0.05608248710632324,-0.277867078781128,-0.34599065780639643,1.2184696791468346e-07,0.0,0.0,0.0,1.2184696791468346e-07,0.0,0.0,0.0,1.2184696791468346e-07,0.7649187,0.37265270000000145,12.18966595,8.999999999999999e-08,0.0,0.0,0.0,8.999999999999999e-08,0.0,0.0,0.0,8.999999999999999e-08
1538769494.4329567,1335,1538769494,432215872,base_link,-0.3510130103797065,-0.14464665626157094,-0.40355721625058516,-0.8324714917572862,1.0,0.0,0.0,0.0,1.0,0.0,0.0,0.0,1.0,-0.03724781423807144,-0.2730159461498261,-0.325760006904602,1.2184696791468346e-07,0.0,0.0,0.0,1.2184696791468346e-07,0.0,0.0,0.0,1.2184696791468346e-07,0.6668522,0.8825985000000015,12.4544455,8.999999999999999e-08,0.0,0.0,0.0,8.999999999999999e-08,0.0,0.0,0.0,8.999999999999999e-08
1538769494.7800274,1336,1538769494,779712544,base_link,-0.353532938384168,-0.1250254509257727,-0.3416455919388359,-0.8617780384803417,1.0,0.0,0.0,0.0,1.0,0.0,0.0,0.0,1.0,0.019662845879793167,-0.2626697719097138,-0.3410986959934234,1.2184696791468346e-07,0.0,0.0,0.0,1.2184696791468346e-07,0.0,0.0,0.0,1.2184696791468346e-07,0.5099458,0.8237586000000015,11.93469305,8.999999999999999e-08,0.0,0.0,0.0,8.999999999999999e-08,0.0,0.0,0.0,8.999999999999999e-08
1538769495.1781557,1337,1538769495,177709600,base_link,-0.36565622888067734,-0.10104833893371486,-0.25827133266350877,-0.8884709754424813,1.0,0.0,0.0,0.0,1.0,0.0,0.0,0.0,1.0,-0.02235572040081024,-0.27626064419746404,-0.3452222645282745,1.2184696791468346e-07,0.0,0.0,0.0,1.2184696791468346e-07,0.0,0.0,0.0,1.2184696791468346e-07,0.65704555,0.9316317500000015,12.28773245,8.999999999999999e-08,0.0,0.0,0.0,8.999999999999999e-08,0.0,0.0,0.0,8.999999999999999e-08
1538769495.41708,1338,1538769495,416756032,base_link,-0.36359839629489493,-0.08829373779301612,-0.20279236528389416,-0.9049174982620692,1.0,0.0,0.0,0.0,1.0,0.0,0.0,0.0,1.0,-0.09829560667276382,-0.27012541890144354,-0.3862320184707641,1.2184696791468346e-07,0.0,0.0,0.0,1.2184696791468346e-07,0.0,0.0,0.0,1.2184696791468346e-07,0.48052585000000003,0.8433719000000017,13.11149105,8.999999999999999e-08,0.0,0.0,0.0,8.999999999999999e-08,0.0,0.0,0.0,8.999999999999999e-08
1538769495.8581808,1339,1538769495,855863872,base_link,-0.38450780102408083,-0.06042706513277873,-0.11119330617180218,-0.9144060200007699,1.0,0.0,0.0,0.0,1.0,0.0,0.0,0.0,1.0,0.18197737634181976,-0.33015996217727667,-0.27524408698081965,1.2184696791468346e-07,0.0,0.0,0.0,1.2184696791468346e-07,0.0,0.0,0.0,1.2184696791468346e-07,0.3334261,0.6472389000000015,12.601545250000001,8.999999999999999e-08,0.0,0.0,0.0,8.999999999999999e-08,0.0,0.0,0.0,8.999999999999999e-08
1538769496.2171636,1340,1538769496,216528288,base_link,-0.38433757558216175,-0.029122523294907356,-0.04232807476160888,-0.9217618134418127,1.0,0.0,0.0,0.0,1.0,0.0,0.0,0.0,1.0,-0.48254334926605225,-0.29071050882339483,-0.34184867143630976,1.2184696791468346e-07,0.0,0.0,0.0,1.2184696791468346e-07,0.0,0.0,0.0,1.2184696791468346e-07,0.5491724,1.5298374000000015,11.8464332,8.999999999999999e-08,0.0,0.0,0.0,8.999999999999999e-08,0.0,0.0,0.0,8.999999999999999e-08
1538769496.5703812,1341,1538769496,569885920,base_link,-0.1072401406442958,0.002650794606217595,0.0011401258547921735,-0.9942289603685777,1.0,0.0,0.0,0.0,1.0,0.0,0.0,0.0,1.0,-1.5927869081497192,-0.09265547990798952,-0.16466650366783142,1.2184696791468346e-07,0.0,0.0,0.0,1.2184696791468346e-07,0.0,0.0,0.0,1.2184696791468346e-07,0.32361945000000003,0.8139519500000016,13.6116302,8.999999999999999e-08,0.0,0.0,0.0,8.999999999999999e-08,0.0,0.0,0.0,8.999999999999999e-08
1538769496.925139,1342,1538769496,924747584,base_link,0.10076924687392966,0.008074281438890203,0.026591937812513233,-0.9945216104776617,1.0,0.0,0.0,0.0,1.0,0.0,0.0,0.0,1.0,-0.9572504758834839,-0.067422091960907,-0.07589632272720336,1.2184696791468346e-07,0.0,0.0,0.0,1.2184696791468346e-07,0.0,0.0,0.0,1.2184696791468346e-07,0.0,0.2451662500000014,11.30706745,8.999999999999999e-08,0.0,0.0,0.0,8.999999999999999e-08,0.0,0.0,0.0,8.999999999999999e-08
1538769497.402007,1343,1538769497,401729472,base_link,0.2548617011885652,0.02289537065412904,-0.0005969023893571665,-0.9667062423391182,1.0,0.0,0.0,0.0,1.0,0.0,0.0,0.0,1.0,-0.3737466633319855,-0.13839535415172574,0.19786012172698977,1.2184696791468346e-07,0.0,0.0,0.0,1.2184696791468346e-07,0.0,0.0,0.0,1.2184696791468346e-07,0.0,-0.1765196999999986,11.2580342,8.999999999999999e-08,0.0,0.0,0.0,8.999999999999999e-08,0.0,0.0,0.0,8.999999999999999e-08
1538769497.8982458,1344,1538769497,897830048,base_link,0.3130931097461181,0.03873426520256227,-0.08244390055558432,-0.9453440456203783,1.0,0.0,0.0,0.0,1.0,0.0,0.0,0.0,1.0,-0.014570891857147217,-0.15541200339794156,0.31350287795066833,1.2184696791468346e-07,0.0,0.0,0.0,1.2184696791468346e-07,0.0,0.0,0.0,1.2184696791468346e-07,0.02941995,1.2730263484829895e-15,10.395049,8.999999999999999e-08,0.0,0.0,0.0,8.999999999999999e-08,0.0,0.0,0.0,8.999999999999999e-08
1538769498.305239,1345,1538769498,304711008,base_link,0.30529004887160766,0.05221231042385003,-0.15647051779442822,-0.9378639761507628,1.0,0.0,0.0,0.0,1.0,0.0,0.0,0.0,1.0,-0.0023372825235128403,-0.20852023363113398,0.38233405351638794,1.2184696791468346e-07,0.0,0.0,0.0,1.2184696791468346e-07,0.0,0.0,0.0,1.2184696791468346e-07,0.0392266,0.05883990000000147,12.0425662,8.999999999999999e-08,0.0,0.0,0.0,8.999999999999999e-08,0.0,0.0,0.0,8.999999999999999e-08
1538769498.7737584,1346,1538769498,773537952,base_link,0.2690913070747192,0.06646171571791419,-0.24517920512369623,-0.9290101539679546,1.0,0.0,0.0,0.0,1.0,0.0,0.0,0.0,1.0,0.3374904692173004,-0.1737297028303146,0.27124953269958496,1.2184696791468346e-07,0.0,0.0,0.0,1.2184696791468346e-07,0.0,0.0,0.0,1.2184696791468346e-07,0.0392266,0.37265270000000145,12.18966595,8.999999999999999e-08,0.0,0.0,0.0,8.999999999999999e-08,0.0,0.0,0.0,8.999999999999999e-08
1538769499.1512365,1347,1538769499,149555744,base_link,0.1947476389560205,0.06294812770203481,-0.3029665333458709,-0.930764293477274,1.0,0.0,0.0,0.0,1.0,0.0,0.0,0.0,1.0,0.5058684945106506,-0.1242483928799629,0.25223129987716675,1.2184696791468346e-07,0.0,0.0,0.0,1.2184696791468346e-07,0.0,0.0,0.0,1.2184696791468346e-07,0.00980665,0.3138128000000014,11.58165365,8.999999999999999e-08,0.0,0.0,0.0,8.999999999999999e-08,0.0,0.0,0.0,8.999999999999999e-08
1538769499.4216201,1348,1538769499,418398688,base_link,0.12647142323384852,0.048833216178992285,-0.3368017988131513,-0.9317643717265895,1.0,0.0,0.0,0.0,1.0,0.0,0.0,0.0,1.0,0.5288546085357666,-0.06136075779795644,0.21009403467178345,1.2184696791468346e-07,0.0,0.0,0.0,1.2184696791468346e-07,0.0,0.0,0.0,1.2184696791468346e-07,-0.08825985,0.19613300000000142,11.5326204,8.999999999999999e-08,0.0,0.0,0.0,8.999999999999999e-08,0.0,0.0,0.0,8.999999999999999e-08
1538769499.7221944,1349,1538769499,721898400,base_link,0.05527318386418531,0.024682380774684667,-0.36889775222305415,-0.927496686586851,1.0,0.0,0.0,0.0,1.0,0.0,0.0,0.0,1.0,0.4160969853401184,-0.006603979971259814,0.15114273130893707,1.2184696791468346e-07,0.0,0.0,0.0,1.2184696791468346e-07,0.0,0.0,0.0,1.2184696791468346e-07,-0.1569064,0.4805258500000013,10.58137535,8.999999999999999e-08,0.0,0.0,0.0,8.999999999999999e-08,0.0,0.0,0.0,8.999999999999999e-08
1538769500.3156319,1350,1538769500,315105472,base_link,-0.050027002602843644,-0.02887441888887306,-0.3807568335221816,-0.9228693302253395,1.0,0.0,0.0,0.0,1.0,0.0,0.0,0.0,1.0,0.36892926692962646,0.05509229376912116,-0.06677809357643127,1.2184696791468346e-07,0.0,0.0,0.0,1.2184696791468346e-07,0.0,0.0,0.0,1.2184696791468346e-07,-0.1765197,0.4314926000000011,8.924051500000001,8.999999999999999e-08,0.0,0.0,0.0,8.999999999999999e-08,0.0,0.0,0.0,8.999999999999999e-08
1538769500.512705,1351,1538769500,512264032,base_link,-0.07011936432348001,-0.04244510249147475,-0.3747251347311756,-0.9235056910610033,1.0,0.0,0.0,0.0,1.0,0.0,0.0,0.0,1.0,0.20416980981826782,0.062144856899976716,-0.08518929779529573,1.2184696791468346e-07,0.0,0.0,0.0,1.2184696791468346e-07,0.0,0.0,0.0,1.2184696791468346e-07,-0.3334261,0.4314926000000011,8.97308475,8.999999999999999e-08,0.0,0.0,0.0,8.999999999999999e-08,0.0,0.0,0.0,8.999999999999999e-08
1538769501.0220184,1352,1538769501,21723392,base_link,-0.07853249972421211,-0.06174159965799818,-0.3606843310072288,-0.9273227241497999,1.0,0.0,0.0,0.0,1.0,0.0,0.0,0.0,1.0,-0.14992547035217285,0.01998489908874034,-0.08461431413888931,1.2184696791468346e-07,0.0,0.0,0.0,1.2184696791468346e-07,0.0,0.0,0.0,1.2184696791468346e-07,-0.08825985,0.38245935000000114,9.30651085,8.999999999999999e-08,0.0,0.0,0.0,8.999999999999999e-08,0.0,0.0,0.0,8.999999999999999e-08
1538769501.367133,1353,1538769501,365222432,base_link,-0.0653521973100729,-0.061857284757266325,-0.34871698749892144,-0.9328982952384901,1.0,0.0,0.0,0.0,1.0,0.0,0.0,0.0,1.0,-0.0953381210565567,-0.022365435957908637,-0.047460395842790604,1.2184696791468346e-07,0.0,0.0,0.0,1.2184696791468346e-07,0.0,0.0,0.0,1.2184696791468346e-07,-0.02941995,0.14709975000000122,9.97336305,8.999999999999999e-08,0.0,0.0,0.0,8.999999999999999e-08,0.0,0.0,0.0,8.999999999999999e-08
1538769501.7949717,1354,1538769501,794700224,base_link,-0.04083583152948648,-0.04596277736882966,-0.35610893195078647,-0.9324195871734511,1.0,0.0,0.0,0.0,1.0,0.0,0.0,0.0,1.0,-0.20956747233867645,-0.014943405985832211,0.03139292076230049,1.2184696791468346e-07,0.0,0.0,0.0,1.2184696791468346e-07,0.0,0.0,0.0,1.2184696791468346e-07,0.06864655,0.6276256000000012,9.71839015,8.999999999999999e-08,0.0,0.0,0.0,8.999999999999999e-08,0.0,0.0,0.0,8.999999999999999e-08
1538769502.1081488,1355,1538769502,107844736,base_link,-0.02335476644944803,-0.03710238837938175,-0.354743114277777,-0.9339353781355224,1.0,0.0,0.0,0.0,1.0,0.0,0.0,0.0,1.0,-0.01852579042315483,-0.010974038392305381,-0.058217573910951614,1.2184696791468346e-07,0.0,0.0,0.0,1.2184696791468346e-07,0.0,0.0,0.0,1.2184696791468346e-07,0.0784532,0.5589790500000014,11.28745415,8.999999999999999e-08,0.0,0.0,0.0,8.999999999999999e-08,0.0,0.0,0.0,8.999999999999999e-08
